# Tobii IMU Recording
# Timestamp,2026-03-25 23:12:44
# Serial,TG03H-010214605225
# Firmware,2.3.4+SHA+f6414a6
# Battery (%),0.0
# Charging,True
# Gaze Frequency (Hz),100
# Total Samples,23481
# Extended to 180 s from the original 7 s capture; magnetometer DeviceTS rebuilt from LocalTS and rows re-sorted

DeviceTS,LocalTS,Accel_X,Accel_Y,Accel_Z,Gyro_X,Gyro_Y,Gyro_Z,Mag_X,Mag_Y,Mag_Z
0.694694,1774476756.337305,0.143654085456,9.776221304916898,-1.8136459534783824,-1.97390424,-0.11349275785178092,2.630710118081892,,,
0.7029540000000001,1774476756.346508,0.1418584093878,9.764350524624502,-1.8147943262127617,-2.0038118799999998,-0.24697280123554494,2.5062032056074304,,,
0.711214,1774476756.351122,0.1292886769104,9.745366310059312,-1.8119829683545394,-2.10848862,-0.566117840034474,2.5511077348521027,,,
0.7194740000000001,1774476756.359688,0.1233030900164,9.747781741096931,-1.8063770756089075,-2.07110407,-0.7144019723139597,2.5367628097287,,,
0.727735,1774476756.367859,0.1292886769104,9.768955076747032,-1.7931316126294186,-2.10101171,-0.9632387515109941,2.696669983282863,,,
0.7359950000000001,1774476756.377461,0.13467570511500002,9.769877139528695,-1.7945514648297358,-2.1458731699999998,-1.22687961960375,2.966739144188085,,,
0.744255,1774476756.383927,0.1532310244864,9.752349535191643,-1.7877662031077064,-2.33279592,-1.4774479816215211,3.226385709383697,,,
0.752515,1774476756.3922749,0.1939330153656,9.745572684955018,-1.7851018773607599,-2.45990339,-1.6014957303236639,3.397987897695888,,,
0.7607750000000001,1774476756.400861,0.2071013065324,9.741847675800539,-1.782474309641632,-2.50476485,-1.696112346986253,3.4563190245193263,,,
0.769035,1774476756.4086442,0.2328393301766,9.739681139472243,-1.7869092448962718,-2.42251884,-1.627004532949425,3.3499023208301697,,,
0.7772960000000001,1774476756.4168751,0.24540906265399998,9.740413650329014,-1.7748263279223684,-2.42251884,-1.5250743947149201,3.290016656937885,,,
0.785556,1774476756.425181,0.2448105039646,9.734968962965866,-1.76877357705711,-2.44494957,-1.4575211177469387,3.1762864316768127,,,
0.7938160000000001,1774476756.435519,0.24840185610100002,9.742792323338815,-1.772272276258878,-2.5122417599999998,-1.36290450108435,3.1179553048533752,,,
0.802076,1774476756.441886,0.24600762134339998,9.749979273667247,-1.7701283246871955,-2.40008811,-1.2436974093406379,3.031465465038801,,,
0.8103360000000001,1774476756.450376,0.2448105039646,9.731617295875372,-1.7643895731014954,-2.30288828,-1.152826076339952,3.027438063356469,,,
0.818597,1774476756.458473,0.2490004147904,9.728989728156243,-1.7681145822559765,-2.3178421,-1.177416551421075,3.055596776347605,,,
0.8268570000000001,1774476756.4666162,0.2478032974116,9.737582357413785,-1.7564785234016993,-2.34027283,-1.01295083892891,3.0741461489052297,,,
0.835117,1774476756.475007,0.2412191518282,9.741629777333232,-1.7518314514655522,-2.07858098,-0.944479234416291,3.036660213501012,,,
0.8433780000000001,1774476756.48311,0.2478032974116,9.739089898940946,-1.7580228229566794,-2.0860578899999997,-0.8979481946194202,3.003837889303335,,,
0.851638,1774476756.491445,0.2388249170706,9.745083307021774,-1.7672518622587423,-2.25802682,-0.8515942005744391,3.078068478319023,,,
0.859898,1774476756.499516,0.2298465367296,9.753975762287666,-1.7599630493322613,-2.27298064,-0.7703322080072641,2.884984889063403,,,
0.8681580000000001,1774476756.5082781,0.2316422127978,9.748706453578203,-1.7588430231402945,-2.11596553,-0.7770095200549709,2.8176086578473116,,,
0.8764190000000001,1774476756.515754,0.2268537432826,9.747198912051044,-1.7572987235853146,-2.16082699,-0.8025183226807321,2.7695230809815943,,,
0.8846790000000001,1774476756.524972,0.2202695976992,9.751085126588007,-1.7562889714768048,-2.36270356,-0.8954033565225841,2.728114816163583,,,
0.892939,1774476756.532935,0.21488256949460002,9.750375200487849,-1.7567500028676377,-2.23559609,-0.8666084340072389,2.6837745229597676,,,
0.9011990000000001,1774476756.541033,0.2172768042522,9.747323359405707,-1.7567132448398186,-2.11596553,-0.7972185019499818,2.7225328774124042,,,
0.90946,1774476756.5500538,0.21188977604759998,9.755791541308586,-1.7456626647310372,-2.12344244,-0.8468586158845469,2.740728158466249,,,
0.9177200000000001,1774476756.558038,0.2106926586688,9.751933673314035,-1.7638125058414058,-1.93651969,-0.8493314804980321,2.657170347037479,,,
0.92598,1774476756.565739,0.2106926586688,9.745004029180334,-1.7445935698380959,-2.02624261,-0.8712720452137799,2.66183395824402,,,
0.9342400000000001,1774476756.573802,0.21428401080520001,9.743598350251224,-1.7540856771206907,-2.0860578899999997,-0.9539115290979121,2.740551112714359,,,
0.942501,1774476756.582282,0.2041085130854,9.739361378406887,-1.745229979882617,-2.0860578899999997,-0.9738383929724942,2.790650390421243,,,
0.9507610000000001,1774476756.5936892,0.2130868934264,9.738102731589048,-1.742514722836645,-1.9589504199999999,-1.063155188904333,2.801991313675491,,,
0.959021,1774476756.598326,0.212488334737,9.731999049424767,-1.7424412067810076,-1.96642733,-1.1575947598150318,2.7532695272855636,,,
0.9672810000000001,1774476756.6086998,0.2136854521158,9.738190420915892,-1.7449810851732908,-2.07110407,-1.147631327877741,2.728219888432122,,,
0.975542,1774476756.615823,0.2232623911462,9.74152791473518,-1.7407950446279767,-2.1683038999999997,-1.1717626391865452,2.7945007463516847,,,
0.9838020000000001,1774476756.6248431,0.2268537432826,9.73843931562522,-1.7438101276822995,-1.8168891299999999,-1.0693733371797212,2.772737227387827,,,
0.9920620000000001,1774476756.631723,0.2328393301766,9.746423881380654,-1.7436715070564306,-1.78698149,-1.11682270452123,2.72931526172865,,,
1.0003220000000002,1774476756.6463811,0.24181771051759998,9.725895367260481,-1.7423676907253696,-1.82436604,-1.0844595440958722,2.7377241565970936,,,
1.008583,1774476756.6480892,0.2388249170706,9.71874517495987,-1.74145980121491,-1.8467967699999999,-0.966806989421007,2.6439207952106036,,,
1.0168430000000002,1774476756.656767,0.236430682313,9.712217219432574,-1.737624517976972,-1.57762801,-0.8899264900399438,2.5740716993810278,,,
1.025103,1774476756.664385,0.23523356493419997,9.720699574606659,-1.7351439823691197,-1.4505205399999999,-0.8231864683480621,2.636325155618259,,,
1.033363,1774476756.6745658,0.2316422127978,9.717172528862479,-1.7258272537402133,-1.495382,-0.8378135114918939,2.639434229755953,,,
1.041624,1774476756.6813068,0.2238609498356,9.727637630225763,-1.734170988288429,-1.3458438,-0.7389924473950827,2.5649215227198363,,,
1.049884,1774476756.690486,0.2088969826006,9.72725011489057,-1.7273573800239872,-1.2262132399999999,-0.6798480652955461,2.483554457884122,,,
1.058144,1774476756.697459,0.2029113957066,9.738849415717027,-1.7390018503636708,-1.0467674,-0.645471204029022,2.537399019252909,,,
1.0664040000000001,1774476756.70589,0.1981229261914,9.759926650554876,-1.7434819551315361,-1.12901341,-0.5385953365675471,2.6446289782181642,,,
1.074665,1774476756.714324,0.1981229261914,9.764559549219815,-1.7389593305500517,-1.18135178,-0.6509480705116619,2.691442136035464,,,
1.0829250000000001,1774476756.724533,0.1903416632292,9.762231807509039,-1.7470315856323295,-1.23369015,-0.645189086008593,2.6825740773947007,,,
1.091185,1774476756.731044,0.203509954396,9.761397434054215,-1.7480780957686577,-1.23369015,-0.649852697215134,2.660633512678953,,,
1.099445,1774476756.7389498,0.1867503110928,9.75271711546983,-1.757247792286289,-1.3682745299999999,-0.7329513448715851,2.7012285222208647,,,
1.107706,1774476756.747102,0.182560400267,9.736236021269105,-1.7512969040190816,-1.36079762,-0.7260969870719881,2.6615518402235905,,,
1.115966,1774476756.7556639,0.1807647241988,9.74733753267691,-1.765283289340748,-1.35332071,-0.8929304919090989,2.811672627592353,,,
1.1242260000000002,1774476756.7643409,0.1903416632292,9.758175976104187,-1.7718705876524767,-1.30098234,-0.9624974697182459,2.879967186353082,,,
1.132486,1774476756.7759302,0.1909402219186,9.763555558897105,-1.7638350905980182,-1.30098234,-1.1034680804258157,2.8640677241608317,,,
1.1407470000000002,1774476756.780211,0.1933344566762,9.764016590287937,-1.7645450166981769,-1.24864397,-1.0658050992697081,2.825486415460086,,,
1.1490070000000001,1774476756.78998,0.1927358979868,9.774900203228439,-1.747888543843764,-1.41313599,-1.219389052279944,2.858131693905873,,,
1.157267,1774476756.796735,0.19572869143379998,9.794008865148292,-1.7501144229564904,-1.55519728,-1.250374721388345,2.9640892338227105,,,
1.165527,1774476756.8065228,0.20530563046419997,9.783133663693198,-1.7465789657269026,-1.71221239,-1.3069742653910459,2.7697332255186717,,,
1.173788,1774476756.814757,0.2071013065324,9.793782555195579,-1.7396634948644103,-1.85427368,-1.2221440349138577,2.629398824335311,,,
1.182048,1774476756.822124,0.20829842391120001,9.794418965240098,-1.7453061456378607,-1.96642733,-1.296374623929546,2.675752818380292,,,
1.1903080000000001,1774476756.829983,0.20949554129,9.76633015872751,-1.7479027171149697,-2.0038118799999998,-1.1972714418123058,2.746415169485967,,,
1.198568,1774476756.838203,0.20949554129,9.74064260998133,-1.7363233513455176,-1.9290427799999998,-1.1591492968838788,2.745956005713648,,,
1.2068290000000002,1774476756.847018,0.20470707177480002,9.735871090690523,-1.7328614101715683,-2.0038118799999998,-1.299273553530162,3.165581717946774,,,
1.215089,1774476756.85676,0.20530563046419997,9.720303647786057,-1.748522304188678,-1.99633497,-1.2871913484831659,3.4381957169488317,,,
1.223349,1774476756.864203,0.22445950852500002,9.724738583040699,-1.7506888405169734,-1.85427368,-1.268713949408892,3.633010889025189,,,
1.2316090000000002,1774476756.878819,0.2310436541084,9.732833422879587,-1.7413946966446785,-1.89913514,-1.3743893713052997,3.74720027805858,,,
1.23987,1774476756.879654,0.236430682313,9.7322621174053,-1.7498402937909454,-1.7944584,-1.4114161429371994,3.716850818474388,,,
1.2481300000000002,1774476756.889184,0.24421194527520002,9.737494668086942,-1.7540121610650534,-1.65239711,-1.479533655946038,3.540230927451876,,,
1.2563900000000001,1774476756.8953831,0.2478032974116,9.744893755096879,-1.7537490930845212,-1.51781273,-1.5436237672725448,3.4544823694300497,,,
1.26465,1774476756.904099,0.25319032561620003,9.738094320103642,-1.7627066529206457,-1.66735093,-1.508892814502241,3.294221104372107,,,
1.2729110000000001,1774476756.912673,0.2555845603738,9.741021713831122,-1.7633288896939598,-1.5701511,-1.640182111292949,3.108096945184623,,,
1.281171,1774476756.921188,0.2621687059572,9.748559421466929,-1.7710503874688617,-1.48790509,-1.6790455380141243,2.9252589058867224,,,
1.289431,1774476756.929168,0.2627672646466,9.75412855618474,-1.776517659588624,-1.50285891,-1.689927297496053,2.874064254883311,,,
1.2976910000000001,1774476756.938078,0.2759355558134,9.746093059130283,-1.7711380767957052,-1.54024346,-1.6777731189657061,2.787397369316847,,,
1.305952,1774476756.946078,0.28012546663919996,9.751011610532368,-1.7623926536410879,-1.55519728,-1.593119934240408,2.754115881346851,,,
1.3142120000000002,1774476756.957246,0.2819211427074,9.748632937522569,-1.7649467053045784,-1.5701511,-1.454163024374004,2.724579677038758,,,
1.322472,1774476756.9626508,0.2825197013968,9.73555444171136,-1.7688980244117731,-1.77202767,-1.4625719192424478,2.756942837464116,,,
1.330732,1774476756.9757922,0.2920966404272,9.720442268411928,-1.7565068699441122,-1.6449202,-1.2050441271565409,2.709847561626387,,,
1.338993,1774476756.978581,0.2914980817378,9.730856438476188,-1.7593324010735403,-1.69725857,-1.1345588218027558,2.717797292722512,,,
1.347253,1774476756.990332,0.2837168187756,9.724987477750023,-1.7495178830259819,-1.77950458,-0.9361754118163859,2.752069081720497,,,
1.3555130000000002,1774476756.996048,0.281322584018,9.735577026467972,-1.757276138828702,-1.51781273,-0.6101760152178599,2.66748787047855,,,
1.3637730000000001,1774476757.003628,0.26456294071479997,9.73209250053741,-1.7736695437025827,-1.48790509,-0.5558722900767539,2.671233154140453,,,
1.372034,1774476757.014255,0.2525917669268,9.731843605828082,-1.7748405011935744,-1.47295127,-0.38829750344689495,2.7044095698419097,,,
1.3802940000000001,1774476757.0200791,0.2388249170706,9.750389373759054,-1.7653200473685668,-1.4804281799999999,-0.27923088939236407,2.7500222820941427,,,
1.388554,1774476757.027853,0.23942347576,9.754510309734137,-1.7545692932681365,-1.37575144,-0.18415510895745602,2.729813300199132,,,
1.3968150000000001,1774476757.0400279,0.2280508606614,9.76267025414326,-1.7593633973155594,-1.33088998,-0.21150056667249295,2.529239143619706,,,
1.405075,1774476757.044397,0.2076998652218,9.75510996175084,-1.7632637851237287,-1.31593616,-0.24213214427711394,2.421090857109813,,,
1.413335,1774476757.053987,0.221466715078,9.733673558120207,-1.76911016109328,-1.46547436,-0.40769323006580704,2.433350107908699,,,
1.421596,1774476757.061245,0.2011157196384,9.729750585555427,-1.7731717542839316,-1.43556672,-0.49481927940459003,2.383073784449925,,,
1.429856,1774476757.069369,0.203509954396,9.74737429070473,-1.7622314482586066,-1.41313599,-0.6530668436213669,2.3937784981799637,,,
1.4381160000000002,1774476757.077585,0.2023128370172,9.75835976624328,-1.7566113822417682,-1.48790509,-0.650311860987453,2.622511367750526,,,
1.446377,1774476757.085631,0.21548112818399998,9.765846542580064,-1.7588146765978823,-1.50285891,-0.7502282983807921,2.7278326981431538,,,
1.4546370000000002,1774476757.094839,0.2166782455628,9.75883497090532,-1.7658913528428566,-1.52528964,-0.903530133370599,2.905653034730733,,,
1.4628970000000001,1774476757.102319,0.230445095419,9.755497477086033,-1.7700773933881706,-1.65239711,-0.993023975054328,3.0240468711983457,,,
1.471157,1774476757.110604,0.23942347576,9.767727426171213,-1.7586025399163752,-1.54024346,-0.9553609938982199,2.9854655624976,,,
1.4794180000000001,1774476757.125153,0.2561831190632,9.775103928424537,-1.769961357518914,-1.51781273,-0.8456581703194801,2.962147506464895,,,
1.481885,1774476757.120878,,,,,,,68.677718,-91.45078598486161,59.2806129395034
1.482087,1774476757.1210802,,,,,,,69.5566364,-87.48580477967616,88.91378536479851
1.482167,1774476757.12116,,,,,,,71.180194,-86.93642687634309,88.21045542237324
1.482292,1774476757.1212852,,,,,,,70.7407348,-86.90949333019081,89.4527221350258
1.485691,1774476757.124684,,,,,,,68.921862,-86.80305861911158,86.959075340331
1.485845,1774476757.1248379,,,,,,,70.8872212,-87.14143779387094,89.47706362264091
1.485923,1774476757.124916,,,,,,,68.94627639999999,-87.27041619793752,89.10512151321083
1.486073,1774476757.125066,,,,,,,71.4121308,-87.52549189324462,89.19677927685228
1.487678,1774476757.127114,0.2537888843056,9.77714601739817,-1.7661119010097694,-1.60005874,-0.8982303126398491,2.858662831161543,,,
1.495938,1774476757.1354702,0.25319032561620003,9.773443593000302,-1.7518624477075706,-1.63744329,-0.8043549777700081,2.617034501267886,,,
1.504199,1774476757.144576,0.2507960908586,9.75358824695247,-1.7531494410678188,-1.83184295,-0.7793053389165661,2.626997933205177,,,
1.512459,1774476757.1521301,0.2448105039646,9.74986323779799,-1.7505218733486911,-1.8767044099999999,-0.717051882679335,2.560257911513295,,,
1.5207190000000002,1774476757.163166,0.2478032974116,9.752117463453128,-1.748553300430697,-1.92156587,-0.7527011629942768,2.644274886714384,,,
1.528979,1774476757.168472,0.2525917669268,9.740744472579383,-1.7473597581830929,-1.8467967699999999,-0.771532653572331,2.6635655410647567,,,
1.5372400000000002,1774476757.177929,0.2567816777526,9.750485474571304,-1.7475944796212124,-1.8767044099999999,-0.7786691293923571,2.558067164920239,,,
1.5455,1774476757.301093,0.263365823336,9.753647589736904,-1.7384757144026066,-1.91408896,-0.723906240478932,2.599934593510569,,,
1.55376,1774476757.3017092,0.2615701472678,9.749834891255576,-1.7333817843468327,-1.89913514,-0.6926384533501018,2.639152111735524,,,
1.5620200000000002,1774476757.302357,0.2591759125102,9.738015042262205,-1.7400483604999992,-1.8168891299999999,-0.593817389253291,2.5646394046994065,,,
1.570281,1774476757.302525,0.257380236442,9.742684698954966,-1.7324738948363732,-1.83931986,-0.5169368898722281,2.494790308869831,,,
1.5785410000000002,1774476757.302763,0.2495989734798,9.741338362810286,-1.7272922754537556,-1.83184295,-0.459983254365747,2.475040490747139,,,
1.5868010000000001,1774476757.303156,0.242416269207,9.747244081564267,-1.7340549524191724,-1.7346431199999999,-0.317740224609759,2.353078416369513,,,
1.595061,1774476757.3035069,0.2370292410024,9.760447024730139,-1.729518154566482,-1.69725857,-0.27559067799899994,2.44349058559788,,,
1.6033220000000001,1774476757.303745,0.227452301972,9.762678665628664,-1.7391714672315584,-1.7346431199999999,-0.27513151422668103,2.4816127305263067,,,
1.611582,1774476757.303906,0.2208681563886,9.755044857180607,-1.7491755372040119,-1.66735093,-0.328976075595468,2.515989591792831,,,
1.619842,1774476757.304013,0.22445950852500002,9.748876070446093,-1.735013773228657,-1.6449202,-0.36974813088927005,2.539943857349745,,,
1.6281020000000002,1774476757.3042822,0.221466715078,9.755791541308586,-1.7456626647310372,-1.78698149,-0.5312818149956309,2.6430744411493174,,,
1.636363,1774476757.304478,0.2232623911462,9.752997006421175,-1.724263019128226,-1.8168891299999999,-0.603498703170153,2.7348641016946407,,,
1.6446230000000002,1774476757.3046699,0.2178753629416,9.74518781931943,-1.7293343644273873,-1.99633497,-0.758178029476917,2.7983180034969393,,,
1.652883,1774476757.304746,0.230445095419,9.748151971074728,-1.7269047601185603,-1.7944584,-0.786159696716163,2.6666746152024507,,,
1.6611440000000002,1774476757.30482,0.22505806721439997,9.74067936800915,-1.7332715102633758,-1.7944584,-0.8169683200726741,2.665579241905923,,,
1.669404,1774476757.309647,0.236430682313,9.74313155707459,-1.7246137764356022,-1.83184295,-0.9415803048156749,2.54683131393453,,,
1.677664,1774476757.322022,0.23523356493419997,9.7403795420008,-1.7289242643355798,-1.8467967699999999,-1.032451637816361,2.550858715616862,,,
1.6859250000000001,1774476757.325831,0.2490004147904,9.744565582546114,-1.732261758154866,-1.8692275,-1.054569248283999,2.6625752400367677,,,
1.694185,1774476757.334583,0.2501975321692,9.746607671519747,-1.728412301645722,-1.72716621,-0.9812569868129489,2.5399769561349332,,,
1.7024450000000002,1774476757.343848,0.254387442995,9.755638747411512,-1.7291080544746744,-1.69725857,-1.0277880266098198,2.57279928033261,,,
1.710706,1774476757.3520389,0.2591759125102,9.754716684629843,-1.7276882022743567,-1.6748278399999998,-0.9566665117318258,2.511818243143797,,,
1.7189660000000002,1774476757.358411,0.2597744711996,9.753472211083213,-1.7335429897293144,-1.77202767,-0.7900100526466047,2.4687503689884003,,,
1.7272260000000002,1774476757.371049,0.2537888843056,9.759612651275317,-1.7305646647028103,-1.7196893,-0.742560685305096,2.512172334647577,,,
1.735486,1774476757.377003,0.2621687059572,9.761267224913755,-1.719901599929224,-1.7047354799999999,-0.681402602364393,2.476240936312206,,,
1.7437470000000002,1774476757.384066,0.263365823336,9.761156950830296,-1.7290571231756486,-1.65239711,-0.532941424333017,2.383532948222244,,,
1.752007,1774476757.392201,0.24840185610100002,9.762291150293471,-1.7323578589671167,-1.78698149,-0.4360289888088331,2.515812546040941,,,
1.760267,1774476757.400639,0.24600762134339998,9.764955476040416,-1.7255810087304932,-1.68230475,-0.30484476428666396,2.449708733873268,,,
1.768528,1774476757.409208,0.2430148278964,9.764567960705223,-1.7187674004660514,-1.8467967699999999,-0.32166255402355187,2.5144350547239838,,,
1.776788,1774476757.4189372,0.2370292410024,9.755938573419861,-1.7334553004024704,-1.8692275,-0.42359269225805707,2.574320718616269,,,
1.7850480000000002,1774476757.425799,0.2202695976992,9.751240570184688,-1.723889677064238,-1.80941222,-0.358230161883132,2.522207740068219,,,
1.793309,1774476757.433771,0.22206527376739998,9.742333941647589,-1.7226084454897894,-1.80193531,-0.410979349955391,2.5257759779782316,,,
1.8015690000000002,1774476757.442476,0.2268537432826,9.74491057806769,-1.7133652329165199,-1.83184295,-0.47305576044073194,2.485463086456749,,,
1.8098290000000001,1774476757.450484,0.2328393301766,9.750714434223624,-1.709091503044362,-1.90661205,-0.5326593063125882,2.528708006364036,,,
1.8180900000000002,1774476757.458857,0.2310436541084,9.742780799767216,-1.7147483270890187,-1.83184295,-0.5816632107229439,2.4779725191329427,,,
1.8263500000000001,1774476757.465712,0.2262551845932,9.745371609458523,-1.714075159016679,-1.80193531,-0.5679544951237502,2.398619155138395,,,
1.83461,1774476757.4769018,0.23463500624480002,9.76104091496104,-1.7094506718371443,-1.65987402,-0.6683300962894079,2.465818340602596,,,
1.8428710000000001,1774476757.482443,0.23523356493419997,9.756905805714753,-1.7116313814366457,-1.65239711,-0.664302694607076,2.556689673603282,,,
1.851131,1774476757.491884,0.23463500624480002,9.756269395670229,-1.705988730663195,-1.90661205,-0.750333370649331,2.4756047267879966,,,
1.859391,1774476757.498605,0.2268537432826,9.750985913689563,-1.6962986599702994,-1.95147351,-0.7017886300112941,2.488218069090663,,,
1.8676510000000002,1774476757.5110269,0.227452301972,9.760178194963808,-1.6933570929716144,-1.9589504199999999,-0.689352333460518,2.546726241665991,,,
1.875912,1774476757.515975,0.2322407714872,9.761210531828928,-1.6856214219255063,-1.99633497,-0.7341517904366519,2.479809174222219,,,
1.8841720000000002,1774476757.525259,0.2238609498356,9.758393412184907,-1.6758436619057668,-1.91408896,-0.6049812667556489,2.368269695554203,,,
1.8924320000000001,1774476757.534185,0.22505806721439997,9.769121581528724,-1.6915864834639203,-1.80193531,-0.553150406228028,2.2884571677873358,,,
1.9006930000000002,1774476757.54194,0.2208681563886,9.766369566454935,-1.6958969713638978,-1.75707385,-0.5578140174345689,2.266516603071588,,,
1.9089530000000001,1774476757.548279,0.20829842391120001,9.73910096012596,-1.6888769882037489,-1.66735093,-0.6298538598572009,2.251253350403547,,,
1.917213,1774476757.557363,0.2112912173582,9.734841403525008,-1.6916431765487459,-1.62996638,-0.696029645508225,2.4793500104499,,,
1.9254740000000001,1774476757.566875,0.2112912173582,9.738354275997981,-1.6923898606767236,-1.68978166,-0.750405344132682,2.834885611356519,,,
1.933734,1774476757.574543,0.21548112818399998,9.743711274034288,-1.6959762492053356,-1.57762801,-0.8677757807871179,3.0738640308848013,,,
1.9419940000000002,1774476757.5823529,0.2190724803204,9.75048812427091,-1.6986405749522824,-1.62996638,-0.914483866335879,3.2137392682958428,,,
1.950255,1774476757.59085,0.2322407714872,9.756306153698048,-1.7029368895810533,-1.54024346,-0.96101490613275,3.24656159249352,,,
1.9585150000000002,1774476757.60017,0.23942347576,9.744223236724144,-1.7022043787242818,-1.41313599,-1.114880977163415,3.134031812797515,,,
1.9667750000000002,1774476757.6133351,0.24181771051759998,9.741720116359682,-1.7053439091332676,-1.43556672,-1.200452489433351,3.091069010910657,,,
1.975036,1774476757.616298,0.2591759125102,9.733735550604246,-1.705482529759137,-1.32341307,-1.268110838669871,2.952571264816572,,,
1.9832960000000002,1774476757.6233048,0.2597744711996,9.725340884757006,-1.710429427703635,-1.39818217,-1.390991240592135,2.7340839452037295,,,
1.991556,1774476757.6313112,0.26456294071479997,9.728480415165992,-1.7129325480681,-1.31593616,-1.2982112790188218,2.523264238666584,,,
1.999816,1774476757.639266,0.27354132105580004,9.737437975002114,-1.7197319830613356,-1.37575144,-1.345024436836122,2.4109115047224687,,,
2.008077,1774476757.647586,0.2837168187756,9.757132115667467,-1.7220823095287254,-1.35332071,-1.298034233266932,2.416211325453219,,,
2.016337,1774476757.655691,0.28910384698020003,9.74451465124709,-1.7267435547360788,-1.1215365,-1.2572621779731301,2.3922570598963047,,,
2.024597,1774476757.664458,0.3016735794576,9.764567960705223,-1.7187674004660514,-1.21873633,-1.195644931260108,2.394447806489361,,,
2.032858,1774476757.674387,0.3016735794576,9.765292060076586,-1.7268764135761479,-1.21125942,-1.038492740339859,2.4145517161158327,,,
2.041118,1774476757.681335,0.2968851099424,9.76161798222113,-1.7297670492758075,-1.21125942,-0.817355510361642,2.2681762124089744,,,
2.049378,1774476757.689097,0.2825197013968,9.760534714056982,-1.7319845169031276,-1.20378251,-0.613036070120313,2.186527029552831,,,
2.057639,1774476757.696807,0.2627672646466,9.760234888048632,-1.7276372709753316,-1.3383668899999999,-0.378544216046682,2.174903988278154,,,
2.065899,1774476757.707316,0.2430148278964,9.756026262746705,-1.7359216627391163,-1.4505205399999999,-0.23135545706372396,2.220057536758068,,,
2.0741590000000003,1774476757.7140741,0.22565662590379998,9.748853485689482,-1.7466356588117282,-1.37575144,-0.08243511526002895,2.1654716935965332,,,
2.08242,1774476757.724185,0.212488334737,9.739324620379067,-1.7482818209647588,-1.40565908,-0.04229926949043594,2.2104481963245575,,,
2.0906800000000003,1774476757.730516,0.2041085130854,9.742690460740766,-1.761235869421303,-1.44304363,-0.05975326875153297,2.344105285460211,,,
2.0989400000000002,1774476757.741296,0.19572869143379998,9.762180876210014,-1.7415133822135416,-1.4505205399999999,-0.10582514477608501,2.415049754586315,,,
2.1072010000000003,1774476757.747214,0.1939330153656,9.7712628834008,-1.7477273384612817,-1.43556672,-0.18535555452252295,2.5083939522004863,,,
2.1154610000000003,1774476757.762187,0.197524367502,9.785600026029844,-1.746491276400059,-1.5103358199999999,-0.24725491925597393,2.361028147465638,,,
2.123721,1774476757.7635431,0.1897431045398,9.782746148358001,-1.7397653574624605,-1.4505205399999999,-0.35476699624165803,2.322728956785321,,,
2.131981,1774476757.7795851,0.1987214848808,9.77506140861092,-1.7442512240161259,-1.62996638,-0.358512279903561,2.377032681926427,,,
2.140242,1774476757.779756,0.1981229261914,9.769814684658071,-1.7315093122410887,-1.51781273,-0.3953620057835699,2.23963030912887,,,
2.148502,1774476757.7891772,0.1909402219186,9.77962920270563,-1.7256403515149252,-1.62996638,-0.5290190949192239,2.222176309867773,,,
2.156762,1774476757.796427,0.19453157405500002,9.786991531687748,-1.7284291246165342,-1.7047354799999999,-0.5706044054891248,2.42211425692299,,,
2.165023,1774476757.806752,0.1969258088126,9.7708611947944,-1.7323436856959102,-1.8767044099999999,-0.6678709325170891,2.5039404855310226,,,
2.173283,1774476757.8133519,0.2071013065324,9.758105109748154,-1.72902036514783,-1.9290427799999998,-0.7575418199527081,2.7293872352120006,,,
2.181543,1774476757.821472,0.2226638324568,9.753245901130501,-1.7230920616372345,-1.98138115,-0.757895911456488,2.943493061638731,,,
2.189804,1774476757.829559,0.2292479780402,9.76286245576776,-1.7239122618208502,-1.80941222,-0.7975725934537621,2.936638703839134,,,
2.198064,1774476757.837676,0.24600762134339998,9.76343376124205,-1.7154666646745838,-1.8467967699999999,-0.705605887156548,2.9018026788002906,,,
2.206324,1774476757.847015,0.24421194527520002,9.76595105487772,-1.7208971787665273,-1.8767044099999999,-0.654411236153136,2.890920919318362,,,
2.214585,1774476757.854583,0.2478032974116,9.765263713534173,-1.709736324574289,-1.98138115,-0.702319767266964,2.8093768087307582,,,
2.222845,1774476757.863169,0.251394649548,9.755398264187589,-1.7100870818816651,-2.0038118799999998,-0.755987282883861,2.736700756783917,,,
2.2311050000000003,1774476757.8747451,0.251394649548,9.762373077834514,-1.7060622467188329,-2.07858098,-0.634589444547093,2.588593670256321,,,
2.239366,1774476757.8787751,0.2525917669268,9.75133667099694,-1.7061641093168833,-2.22064227,-0.652784725600938,2.538953556321756,,,
2.2476260000000003,1774476757.887403,0.24540906265399998,9.74995357682444,-1.7040343310164068,-2.0935348,-0.67271158947552,2.58905283402864,,,
2.2558860000000003,1774476757.895962,0.24600762134339998,9.740834811605833,-1.7008722158508087,-2.19073463,-0.7760192190269818,2.534572063135644,,,
2.264146,1774476757.903759,0.23822635838120002,9.747648419870275,-1.7004847005156134,-2.07110407,-0.7560923551523997,2.48447278542876,,,
2.2724070000000003,1774476757.91192,0.2430148278964,9.735851155633517,-1.6955293910857092,-1.9439966,-0.7341517904366519,2.479809174222219,,,
2.280667,1774476757.921083,0.2412191518282,9.743798963361131,-1.6984426115419815,-1.89913514,-0.711115852424376,2.4443369396591668,,,
2.2889280000000003,1774476757.9283252,0.24600762134339998,9.741281669725462,-1.693012097450038,-1.75707385,-0.7607559663589407,2.4625322207130123,,,
2.2971880000000002,1774476757.937409,0.242416269207,9.743448206053754,-1.6885771621953978,-1.8692275,-0.7022477937836129,2.450095924162236,,,
2.305448,1774476757.9458401,0.2376277996918,9.740271917616951,-1.6891258829130746,-1.8767044099999999,-0.6098219237140801,2.45338204405182,,,
2.3137090000000002,1774476757.953311,0.24002203444939998,9.744107200854888,-1.6825979273857774,-1.8767044099999999,-0.6390760100017439,2.459600192327208,,,
2.321969,1774476757.961663,0.23822635838120002,9.751008498446174,-1.684676774387228,-1.71221239,-0.5900721055913879,2.5103356795583007,,,
2.330229,1774476757.969547,0.23523356493419997,9.763442172727455,-1.6952747345905834,-1.74212003,-0.5395136641121849,2.56838468836131,,,
2.33849,1774476757.97775,0.2310436541084,9.757909796037461,-1.686755621388679,-1.65239711,-0.5415273649533511,2.5229490218609674,,,
2.34675,1774476757.9863849,0.2328393301766,9.743134206774197,-1.6756598717666722,-1.6449202,-0.545731812387573,2.5391306020736457,,,
2.355011,1774476757.9946299,0.2280508606614,9.752318076563036,-1.6929102348519875,-1.7196893,-0.609080641921332,2.6366792471220384,,,
2.363271,1774476758.002642,0.22505806721439997,9.749317166779921,-1.6983916802429566,-1.7196893,-0.7063471689492958,2.7185054757300717,,,
2.371531,1774476758.014692,0.21428401080520001,9.746463289108076,-1.691665761305358,-1.74212003,-0.7925548907434408,2.744473442128152,,,
2.379792,1774476758.019032,0.230445095419,9.741106291071771,-1.688079372776746,-1.7047354799999999,-0.807181933887273,2.7475825162658465,,,
2.388052,1774476758.027777,0.230445095419,9.747246731263873,-1.6851010477502424,-1.60005874,-0.8295816623753398,2.71412398254396,,,
2.396312,1774476758.036801,0.2406205931388,9.744868058254074,-1.6876550994137325,-1.51781273,-0.9125032642799011,2.6476660788725073,,,
2.404573,1774476758.049546,0.2376277996918,9.748117862746515,-1.681002696531772,-1.60005874,-0.9497070816636899,2.72436953250168,,,
2.408286,1774476758.0472791,,,,,,,71.1924012,-87.35175033620112,89.30960836099405
2.408754,1774476758.0477471,,,,,,,71.3755092,-87.70563725341272,89.34738960226883
2.408961,1774476758.0479538,,,,,,,71.0703292,-87.40026176487048,89.25752020319315
2.409147,1774476758.04814,,,,,,,71.3510948,-87.97940028834887,88.88142325605396
2.409344,1774476758.048337,,,,,,,71.0092932,-87.84101946060383,89.23888690239707
2.409617,1774476758.04861,,,,,,,68.616682,-87.67159485776831,86.80673068918163
2.410062,1774476758.0490549,,,,,,,70.6796988,-87.91162341147287,89.14157499076954
2.410451,1774476758.0494442,,,,,,,68.5800604,-87.37130483869655,89.27632505055013
2.412833,1774476758.057278,0.2466061800328,9.740769707035602,-1.6867839679310916,-1.55519728,-0.8916580728606809,2.673811091022477,,,
2.421094,1774476758.060493,0.2478032974116,9.745739189736716,-1.6835567481952622,-1.58510492,-0.8956854745430132,2.582939758021791,,,
2.429354,1774476758.0687912,0.2478032974116,9.746310495211002,-1.6751111510489956,-1.62996638,-0.8477769434291851,2.664483868609395,,,
2.437614,1774476758.0769842,0.25319032561620003,9.760339400346288,-1.6897197731439766,-1.52528964,-0.7839689501231071,2.6050573684894287,,,
2.445875,1774476758.085928,0.25319032561620003,9.7692743754258,-1.7081410937202834,-1.31593616,-0.711929107700475,2.6203206211574703,,,
2.454135,1774476758.093781,0.2597744711996,9.782016287200838,-1.7028943697674344,-1.51781273,-0.746305968966999,2.566476059788683,,,
2.4623950000000003,1774476758.101713,0.2507960908586,9.767503765918105,-1.6991977071553654,-1.6449202,-0.5681315408756401,2.50567206835176,,,
2.470656,1774476758.109906,0.2388249170706,9.769048065473088,-1.6976901656282042,-1.5701511,-0.49701002599764604,2.444691031162947,,,
2.4789160000000003,1774476758.118167,0.2472047387222,9.769735406816633,-1.708851019820442,-1.57762801,-0.3839160102607829,2.5811750764158656,,,
2.487177,1774476758.127466,0.2478032974116,9.770394401617766,-1.7028717850108217,-1.60005874,-0.3641661921380911,2.638128711922347,,,
2.4954370000000003,1774476758.135309,0.227452301972,9.768513518026618,-1.7030839216923288,-1.83184295,-0.3805248181026599,2.74097717770149,,,
2.5036970000000003,1774476758.14357,0.22565662590379998,9.7530421759344,-1.7010192479620845,-1.65239711,-0.29258551348777795,2.615269819661961,,,
2.5119580000000004,1774476758.1530712,0.230445095419,9.753539965353053,-1.6986773329801015,-1.69725857,-0.257113278924726,2.638305757674237,,,
2.5202180000000003,1774476758.160167,0.21548112818399998,9.76339124142843,-1.6897565311717953,-1.7944584,-0.370384340413479,2.6088746256346833,,,
2.5284780000000002,1774476758.167776,0.21428401080520001,9.748468620053892,-1.6908681458783559,-1.74212003,-0.4534829880699299,2.649469635176595,,,
2.5367390000000003,1774476758.177863,0.2190724803204,9.75001291960887,-1.6893606043511942,-1.58510492,-0.5239682934237149,2.64151990408047,,,
2.5449990000000002,1774476758.299073,0.2280508606614,9.762505936674584,-1.6852848378893364,-1.68978166,-0.619962401403261,2.585484596118627,,,
2.5532600000000003,1774476758.3002481,0.22505806721439997,9.756489943837142,-1.6876776841703447,-1.65987402,-0.746305968966999,2.566476059788683,,,
2.5615200000000002,1774476758.30088,0.2202695976992,9.746836631172066,-1.689909325068871,-1.66735093,-0.7080067782866819,2.4589639828029988,,,
2.56978,1774476758.302499,0.2310436541084,9.75767507459934,-1.6964966233806,-1.54024346,-0.731678925823167,2.563366985650989,,,
2.5780410000000002,1774476758.302948,0.2448105039646,9.765249540262968,-1.7011662800733598,-1.65987402,-0.774641727710025,2.6489384979209247,,,
2.586301,1774476758.303541,0.24181771051759998,9.761349152454798,-1.6936059876809402,-1.62996638,-0.7387103293746538,2.710096580861628,,,
2.594561,1774476758.303741,0.24540906265399998,9.771039223147694,-1.6883225057002722,-1.7645507599999999,-0.7471192242430981,2.742459741286986,,,
2.602822,1774476758.303904,0.2430148278964,9.760113090393576,-1.6792688450518973,-1.74959694,-0.734965045712751,2.655792855720522,,,
2.611082,1774476758.3039958,0.2430148278964,9.776169911231287,-1.681457966136805,-1.78698149,-0.732138089595486,2.525244840722562,,,
2.619343,1774476758.304084,0.24840185610100002,9.781886078060374,-1.6747178739280004,-1.7944584,-0.687338632619352,2.592161908166334,,,
2.627603,1774476758.304173,0.2507960908586,9.778972857604103,-1.6826656816556154,-1.86175059,-0.79795978374273,2.539235674342185,,,
2.635863,1774476758.304259,0.2310436541084,9.772034801984997,-1.683638675736306,-1.74212003,-0.691011942797904,2.2871847487389183,,,
2.644124,1774476758.304331,0.2208681563886,9.76073532716689,-1.6763414513244186,-1.77950458,-0.6504169332559919,2.3702833963953687,,,
2.652384,1774476758.304398,0.21847392163100002,9.7567981813309,-1.6718330000141406,-1.8467967699999999,-0.635048608319412,2.550471525327894,,,
2.660644,1774476758.3044648,0.2208681563886,9.739856055739343,-1.665172185646774,-1.66735093,-0.598835091963612,2.7568046664103885,,,
2.668905,1774476758.308397,0.2226638324568,9.74638401126664,-1.669007468884712,-1.74959694,-0.6746921915314978,3.1551260234519765,,,
2.677165,1774476758.317291,0.23463500624480002,9.737799793494505,-1.6604515976549894,-1.6748278399999998,-0.8186668041082231,3.3768274894710513,,,
2.685426,1774476758.32515,0.23523356493419997,9.739519471703172,-1.6638767808011194,-1.74212003,-0.960732788112321,3.3917366506353117,,,
2.693686,1774476758.3332522,0.2466061800328,9.732120384693236,-1.6641398487816519,-1.63744329,-0.966950936387709,3.362482564347648,,,
2.701946,1774476758.3417332,0.257380236442,9.73236927940256,-1.6629688912906602,-1.52528964,-0.990268992420414,3.252779740768908,,,
2.710207,1774476758.3495018,0.2507960908586,9.725021123691647,-1.6687501626899799,-1.55519728,-1.07036363820771,3.055773822099495,,,
2.718467,1774476758.357713,0.26097158857839997,9.725445397054663,-1.6725119298722806,-1.40565908,-1.0547462940358892,2.7696281532501326,,,
2.7267270000000003,1774476758.367171,0.2681542928512,9.721844835254842,-1.669298883407657,-1.29350543,-1.135017985575075,2.6796751477940846,,,
2.734988,1774476758.374911,0.275336997124,9.718221688698414,-1.6777077225261046,-1.23369015,-1.270970893572324,2.471610423890853,,,
2.7432480000000004,1774476758.382689,0.2867096122226,9.72734045391702,-1.6808698376917028,-1.23369015,-1.313120440183083,2.381198254662486,,,
2.751509,1774476758.391618,0.2926951991166,9.74456823224572,-1.683307853485936,-1.1215365,-1.2687801469792679,2.409993177177831,,,
2.7597690000000004,1774476758.3988721,0.3208274575184,9.754235718182006,-1.6896462570883393,-1.0841519499999999,-1.133568520774767,2.4347606980108436,,,
2.7680290000000003,1774476758.410775,0.31065195979860005,9.754659991545019,-1.6934080242706397,-1.1215365,-0.9230309322580499,2.382365601442365,,,
2.7762900000000004,1774476758.416987,0.31184907717739996,9.76319327801813,-1.696445692081575,-1.10658268,-0.705179822169417,2.328415967805039,,,
2.7845500000000003,1774476758.424352,0.3070606076622,9.76863796538128,-1.702498442946833,-0.9944290299999999,-0.3953620057835699,2.23963030912887,,,
2.7928100000000002,1774476758.4360478,0.2825197013968,9.771030811662287,-1.7085144357842725,-0.94209066,-0.17549719485377102,2.2311163419918865,,,
2.8010710000000003,1774476758.4403389,0.2579787951314,9.778407313915613,-1.7198732533868113,-1.05424431,0.02104956004332309,2.112899551276164,,,
2.8093310000000002,1774476758.448556,0.2478032974116,9.772654389058706,-1.7296651866777577,-1.14396723,0.20169685274816704,2.135653371268011,,,
2.8175920000000003,1774476758.459336,0.22206527376739998,9.769975890040552,-1.7278719924134514,-1.02433667,0.279495679673868,2.142048565295289,,,
2.8258520000000003,1774476758.4659252,0.203509954396,9.75748287297484,-1.7319477588753087,-1.18135178,0.28553678219736595,2.278355564796318,,,
2.834112,1774476758.4750028,0.1909402219186,9.765789849495238,-1.7245344985941646,-1.21873633,0.20445183538208106,2.364386240838573,,,
2.8423730000000003,1774476758.482466,0.1903416632292,9.783142075178604,-1.7263870356429023,-1.32341307,0.004336842574974076,2.429853843482037,,,
2.850633,1774476758.492019,0.18555319371399998,9.786032710878263,-1.730061113498359,-1.48790509,-0.132888484470693,2.359650656148681,,,
2.858893,1774476758.4984279,0.17537769599420003,9.777836008441323,-1.7283188505330778,-1.52528964,-0.32286299958861897,2.2930157067253383,,,
2.867154,1774476758.509604,0.1837575176458,9.766909875687205,-1.719265189884703,-1.44304363,-0.3844802463016409,2.290824960132282,,,
2.875414,1774476758.517822,0.1909402219186,9.77741173507831,-1.7245570833507773,-1.5925818299999999,-0.5833228200603299,2.21843102620587,,,
2.883675,1774476758.5250509,0.1939330153656,9.791471636455613,-1.707351889778687,-1.65987402,-0.664866930647934,2.266339557319698,,,
2.891935,1774476758.531945,0.20829842391120001,9.789927336900634,-1.7088594313058487,-1.77950458,-0.756551518924719,2.446350640500333,,,
2.900195,1774476758.5427682,0.20590418915359998,9.777719972572067,-1.7087123991945732,-1.9290427799999998,-0.838449721016103,2.7083649980408913,,,
2.908456,1774476758.548095,0.22864941935080002,9.771265533100406,-1.6987734337923512,-1.99633497,-0.929675145520569,2.926498226149953,,,
2.916716,1774476758.557962,0.23583212362359998,9.765659640354775,-1.6963580027547307,-1.89913514,-0.8587306763944649,2.972570102174505,,,
2.924976,1774476758.564518,0.2406205931388,9.771463496510707,-1.6920842728825727,-2.0187657,-0.7753499107175849,3.077150150774385,,,
2.933237,1774476758.5728462,0.242416269207,9.761532942593892,-1.6783467822702316,-2.1683038999999997,-0.7716046270556821,3.0228464256332788,,,
2.941497,1774476758.580954,0.23942347576,9.752326488048443,-1.6727183047679874,-2.12344244,-0.760545821821863,2.966988163423326,,,
2.949758,1774476758.589976,0.2310436541084,9.742650590626752,-1.6865718312495848,-1.96642733,-0.7381460933337958,3.000446697145212,,,
2.958018,1774476758.5977569,0.2190724803204,9.742687348654572,-1.6835199901674431,-1.83931986,-0.677447174165412,2.9263931538814143,,,
2.966278,1774476758.608163,0.227452301972,9.724135818937802,-1.664278469407521,-1.7944584,-0.8463994521122279,2.778850303394676,,,
2.974539,1774476758.615018,0.2316422127978,9.73288124209242,-1.6691970208096065,-1.89165823,-0.9629566334905652,2.8418450414246554,,,
2.982799,1774476758.622446,0.2376277996918,9.74705717933898,-1.6715982785760208,-1.9589504199999999,-1.1008181700604411,2.8405726223762366,,,
2.9910590000000004,1774476758.6303968,0.2466061800328,9.742124454665689,-1.671773657229709,-1.74959694,-1.079336769117012,2.7977868662412684,,,
2.99932,1774476758.6385741,0.26097158857839997,9.758964717659198,-1.6673980647595004,-1.74212003,-1.1571355960427132,2.7913916722139906,,,
3.0075800000000004,1774476758.647851,0.2561831190632,9.7635241002685,-1.6689791223422996,-1.62996638,-1.116363540748911,2.767437406657077,,,
3.015841,1774476758.655401,0.275336997124,9.77191876611574,-1.6640322243978012,-1.69725857,-1.11699975027312,2.836368174942015,,,
3.0241010000000004,1774476758.66374,0.2777312318816,9.767073730769292,-1.6666739653881355,-1.66735093,-1.047891936236292,2.7299514712528588,,,
3.0323610000000003,1774476758.672323,0.2741398797452,9.775409053832101,-1.67640079410885,-1.68978166,-0.957938930780244,2.649679779713673,,,
3.0406220000000004,1774476758.679654,0.26935141023000003,9.773316033559444,-1.6747320471992064,-1.72716621,-0.8127638726384518,2.6493976616932438,,,
3.0488820000000003,1774476758.691252,0.2705485276088,9.774574680377281,-1.6774473042451785,-1.74959694,-0.7855234871919541,2.597743846917513,,,
3.0571420000000002,1774476758.6975732,0.2615701472678,9.771559597322957,-1.674358705135218,-1.7645507599999999,-0.647661950622078,2.599016265965931,,,
3.0654030000000003,1774476758.705415,0.2406205931388,9.77111273920333,-1.6822188235359883,-1.8692275,-0.633494071250565,2.55778504689981,,,
3.0736630000000003,1774476758.7131531,0.24002203444939998,9.754345992265462,-1.680490733841914,-1.7346431199999999,-0.689988542984727,2.615657009950929,,,
3.0819240000000003,1774476758.7238479,0.2280508606614,9.745651500409869,-1.6810903858586157,-1.85427368,-0.7573647742008178,2.622334321998636,,,
3.0901840000000003,1774476758.729911,0.22206527376739998,9.741875559956364,-1.6729446147207008,-1.82436604,-0.777750801847719,2.634311454777093,,,
3.0984450000000003,1774476758.738657,0.22565662590379998,9.738786960846403,-1.6759596977750233,-1.83184295,-0.8488723167257131,2.6952924919659065,,,
3.1067050000000003,1774476758.7486248,0.2322407714872,9.752289730020623,-1.675770145850129,-1.68978166,-0.9062851160045131,2.676920165160171,,,
3.1149660000000003,1774476758.7552462,0.2340364475554,9.751243219884296,-1.6749357723953073,-1.77950458,-0.950343291187899,2.7933003007866177,,,
3.1232260000000003,1774476758.762816,0.2370292410024,9.760149848421392,-1.6762170039697555,-1.74212003,-0.982247287840938,2.823013550846601,,,
3.131486,1774476758.7714639,0.2436133865858,9.754880539711932,-1.6750969777777893,-1.77202767,-1.1513766115396438,2.782523613573228,,,
3.1397470000000003,1774476758.779985,0.2597744711996,9.755290639803741,-1.6702887004591604,-1.7196893,-1.2564158239118428,2.8277822343216807,,,
3.148007,1774476758.788348,0.2699499689194,9.754009408229292,-1.6791953289962598,-1.6224894699999999,-1.1327221667134797,2.8702858724362197,,,
3.1562680000000003,1774476758.7964082,0.2771326731922,9.750072262393303,-1.6746868776859813,-1.65987402,-1.036551012982044,2.819268267184698,,,
3.1645280000000002,1774476758.803852,0.2819211427074,9.759213612368523,-1.666227107268509,-1.68230475,-1.058314531945902,2.716878965177874,,,
3.1727890000000003,1774476758.812303,0.2855124948438,9.767834588168478,-1.6717311374160906,-1.65239711,-0.9005261315014439,2.668052106519408,,,
3.1810490000000002,1774476758.823374,0.2831182600862,9.755876118549235,-1.6704131478138233,-1.74959694,-0.8415587951537971,2.6937379548970593,,,
3.189309,1774476758.828722,0.281322584018,9.750929220604737,-1.662018481966582,-1.74212003,-0.847317779656866,2.702606013537822,,,
3.1975700000000002,1774476758.844498,0.2819211427074,9.734784710440183,-1.6573629985450284,-1.57762801,-0.6383347282089961,2.6428973953974264,,,
3.203542,1774476758.842535,,,,,,,71.1069508,-87.84119100716471,88.82708613283764
3.204490,1774476758.843483,,,,,,,70.8994284,-87.75218877095543,89.65680242079227
3.204973,1774476758.843966,,,,,,,71.2656444,-87.80698649502143,89.28157263651948
3.205066,1774476758.844059,,,,,,,71.4487524,-87.92506316513256,89.01963253723811
3.205154,1774476758.844147,,,,,,,71.180194,-88.06199872143358,87.788267558541
3.205239,1774476758.8442318,,,,,,,70.9726716,-87.6423583073676,89.2340999172774
3.205329,1774476758.844322,,,,,,,68.75096119999999,-87.6391787101908,87.31151698609861
3.205419,1774476758.8444118,,,,,,,71.16798680000001,-87.43752836646264,90.13903559465987
3.20583,1774476758.8450172,0.2819211427074,9.74141452856553,-1.6722346886205421,-1.68978166,-0.5641041391933079,2.596543401352446,,,
3.2140910000000003,1774476758.855245,0.2741398797452,9.753022240877396,-1.6636872288762257,-1.5701511,-0.46546012084838684,2.629083607529694,,,
3.222351,1774476758.861842,0.2597744711996,9.76950333507812,-1.669638117143433,-1.5626741899999999,-0.48164170106106596,2.624879160095472,,,
3.2306120000000003,1774476758.869914,0.2549860016844,9.767848761439682,-1.6803011819170195,-1.42808981,-0.44443788367727693,2.5481757064662993,,,
3.238872,1774476758.8785229,0.26097158857839997,9.768507756240817,-1.6743219471073991,-1.36079762,-0.43309696042302903,2.6374925023981377,,,
3.2471330000000003,1774476758.886534,0.2490004147904,9.760311053803875,-1.672579684142118,-1.54024346,-0.326503210981983,2.5995474032216013,,,
3.255393,1774476758.897491,0.2567816777526,9.76073532716689,-1.6763414513244186,-1.46547436,-0.298803661763166,2.586015733374297,,,
3.263653,1774476758.9047098,0.2537888843056,9.755788429222392,-1.6679467854771775,-1.4804281799999999,-0.357311834338494,2.598452029925073,,,
3.271914,1774476758.911489,0.26037302988899996,9.753797271547786,-1.6773144454051094,-1.52528964,-0.34826672994584107,2.4971581012147768,,,
3.280174,1774476758.9205928,0.254387442995,9.752911966793938,-1.6728427521226503,-1.6449202,-0.3325443135054809,2.463240403720572,,,
3.288435,1774476758.9281652,0.2490004147904,9.751916387956635,-1.6775265820866163,-1.54024346,-0.484855847467299,2.3580241455964828,,,
3.296695,1774476758.937703,0.2490004147904,9.756710492004057,-1.6693666376774945,-1.54772037,-0.5407141096772521,2.346965340362664,,,
3.3049560000000002,1774476758.945426,0.2340364475554,9.756747250031877,-1.6663147965953529,-1.6224894699999999,-0.6054404305279681,2.3301475506257763,,,
3.313216,1774476758.952737,0.24181771051759998,9.769788987815264,-1.6654153185703,-1.52528964,-0.555623270841513,2.204899356358566,,,
3.321476,1774476758.960812,0.24840185610100002,9.770974118577463,-1.674234257780555,-1.42808981,-0.6041680114795501,2.1922860140559,,,
3.329737,1774476758.9689338,0.2430148278964,9.756314565183455,-1.6827449594970532,-1.45799745,-0.6101040417345092,2.308206985910028,,,
3.337997,1774476758.978729,0.2340364475554,9.766977629957042,-1.68439953313549,-1.4206129,-0.6610165747174919,2.4642638035337487,,,
3.346258,1774476758.985805,0.2519932082374,9.771075981175512,-1.6852706646181301,-1.45799745,-0.66741176874477,2.54206263045945,,,
3.354518,1774476758.994425,0.251394649548,9.771559597322957,-1.674358705135218,-1.40565908,-0.5896129418190692,2.5484578244867278,,,
3.362778,1774476759.0028641,0.24840185610100002,9.759191027611909,-1.6778489928515798,-1.4206129,-0.5118141148933679,2.554853018514006,,,
3.371039,1774476759.010175,0.2376277996918,9.760135675150188,-1.6676469594688261,-1.54024346,-0.450656031952665,2.518921620178635,,,
3.379299,1774476759.018552,0.2388249170706,9.770733635353542,-1.655213285187546,-1.6748278399999998,-0.489237340653411,2.481258639022527,,,
3.3875590000000004,1774476759.0282362,0.2310436541084,9.779640263890641,-1.656494516761994,-1.65987402,-0.5218826190991981,2.327674686012291,,,
3.39582,1774476759.035598,0.21548112818399998,9.77944230048034,-1.6631836776717732,-1.66735093,-0.42662979291240005,2.200412790903915,,,
3.40408,1774476759.0437949,0.212488334737,9.778059206307843,-1.6610538993712973,-1.52528964,-0.41868006181627493,2.12992748555013,,,
3.412341,1774476759.0518909,0.2112912173582,9.768456824941792,-1.6688037436886116,-1.54772037,-0.4501248946969949,2.19776288053854,,,
3.420601,1774476759.0598762,0.2076998652218,9.755364155859377,-1.6641850182948768,-1.60005874,-0.42744304818849893,2.376396472402218,,,
3.4288610000000004,1774476759.0688362,0.2011157196384,9.754778677113881,-1.664060570940214,-1.37575144,-0.45175140524919294,2.549730243535146,,,
3.437122,1774476759.07686,0.20470707177480002,9.756198529314197,-1.6631385081585481,-1.55519728,-0.7328462726030461,2.953456493576022,,,
3.4453820000000004,1774476759.0851488,0.2178753629416,9.738260824885339,-1.6611615237551476,-1.66735093,-0.8173943850598051,3.2389659529011747,,,
3.4536420000000003,1774476759.093364,0.2298465367296,9.734139888910255,-1.6719122778555784,-1.61501256,-0.8082442083986129,3.389899995546036,,,
3.4619030000000004,1774476759.101303,0.2448105039646,9.733517652136939,-1.674839671583057,-1.5103358199999999,-0.8279940265213052,3.3329463600395552,,,
3.4701630000000003,1774476759.1101272,0.2495989734798,9.734015441555592,-1.672497756601074,-1.37575144,-0.782204268517182,3.1168268327716593,,,
3.4784240000000004,1774476759.1193018,0.2621687059572,9.73630642523855,-1.6674773426009382,-1.13649032,-0.737509883809587,2.931515928860274,,,
3.4866840000000003,1774476759.129174,0.24840185610100002,9.732821899307988,-1.6838707474748196,-1.2561208799999999,-0.7034151405634921,2.8401854320872686,,,
3.4949450000000004,1774476759.135062,0.2448105039646,9.732734209981142,-1.681404385138173,-1.2561208799999999,-0.7493099708361538,2.8040769880000083,,,
3.5032050000000003,1774476759.143082,0.2495989734798,9.731263426481801,-1.6768082445010515,-1.17387487,-0.7961231286534538,2.691724254055893,,,
3.5114660000000004,1774476759.150968,0.2501975321692,9.736934423797665,-1.6933119234583893,-1.18135178,-0.9271303074237329,2.6507751530102013,,,
3.5197260000000004,1774476759.163177,0.2669571754724,9.740198401561313,-1.6952295650773586,-1.15892105,-0.912680310031791,2.7547189920858717,,,
3.5279860000000003,1774476759.168191,0.2675557341618,9.74316255331661,-1.6927999607685307,-1.1140595899999999,-0.9282256807202609,2.6815837763667116,,,
3.5362470000000004,1774476759.176555,0.28012546663919996,9.758435931998527,-1.7015537954085551,-1.1215365,-0.8639585236418639,2.660279421175173,,,
3.5445070000000003,1774476759.297865,0.2711470862982,9.747860556551782,-1.7023655841067638,-1.12901341,-0.8561858382976288,2.6968470290347533,,,
3.5527680000000004,1774476759.298406,0.27354132105580004,9.768886860090605,-1.7013274854558416,-1.1140595899999999,-0.708820033562781,2.634947664301302,,,
3.5610280000000003,1774476759.298579,0.275336997124,9.772312043236736,-1.6996078072471732,-1.21873633,-0.594912762549819,2.5954480280559182,,,
3.5692890000000004,1774476759.3004942,0.2717456449876,9.777383388535897,-1.7074169943489188,-1.26359779,-0.399179262928824,2.6532149188384975,,,
3.5775490000000003,1774476759.3007948,0.26935141023000003,9.783413554644541,-1.7135941925688398,-1.39818217,-0.3084849756800281,2.7562404303695307,,,
3.5858090000000002,1774476759.301764,0.2675557341618,9.773774415250672,-1.724395877968296,-1.3682745299999999,-0.25262671347007504,2.7672992356033497,,,
3.5940700000000003,1774476759.3053818,0.2466061800328,9.762511698460385,-1.7140468124742663,-1.32341307,-0.1444784269601821,2.736667657998729,,,
3.6023300000000003,1774476759.306114,0.2472047387222,9.784768302274628,-1.698583881867457,-1.41313599,-0.135787414071309,2.849479555715163,,,
3.6105910000000003,1774476759.306258,0.2537888843056,9.798732102839683,-1.6991042560427216,-1.54024346,-0.10808786485249211,2.8359478858678586,,,
3.6188510000000003,1774476759.306735,0.254387442995,9.780845329709846,-1.7026454750581084,-1.5701511,-0.15783305105559609,2.6019151955665465,,,
3.6271120000000003,1774476759.306931,0.24421194527520002,9.749667924087294,-1.7082571295895401,-1.71221239,-0.23965927966362893,2.504648668538583,,,
3.6353720000000003,1774476759.3090181,0.251394649548,9.737995107205197,-1.7027163414141397,-1.60753565,-0.23700936929825395,2.481153566753988,,,
3.6436330000000003,1774476759.3096619,0.254387442995,9.74679987314425,-1.6929611661510133,-1.65239711,-0.16588785442026,2.420172529565175,,,
3.6518930000000003,1774476759.309837,0.24002203444939998,9.761210531828928,-1.6856214219255063,-1.61501256,-0.22796426490560096,2.3798596380436923,,,
3.660153,1774476759.30991,0.2322407714872,9.771647286649802,-1.6768250674718639,-1.58510492,-0.38812045769500503,2.5973566566285453,,,
3.6684140000000003,1774476759.309979,0.24600762134339998,9.773952443603966,-1.6803746979726573,-1.6449202,-0.5190225641967449,2.8086355269380103,,,
3.676674,1774476759.31659,0.2495989734798,9.768982960902857,-1.683601917708487,-1.68978166,-0.5103315513078722,2.9214474246544437,,,
3.6849350000000003,1774476759.32493,0.2621687059572,9.75713476536707,-1.6731284048597947,-1.5925818299999999,-0.5218495203140099,2.93918354193597,,,
3.6931950000000002,1774476759.33537,0.272344203677,9.780107057067275,-1.6859664174470825,-1.65987402,-0.5803576928893379,2.9516198384867463,,,
3.7014560000000003,1774476759.3408499,0.28012546663919996,9.789488890266414,-1.696527619622619,-1.80941222,-0.5212133107898012,2.8702527736510324,,,
3.7097160000000002,1774476759.348943,0.2717456449876,9.784278924341383,-1.68073386676544,-1.5701511,-0.29724912469431897,2.5933292549462132,,,
3.717976,1774476759.3586812,0.2777312318816,9.767636624758177,-1.6784202983258694,-1.7944584,-0.286649483232819,2.4993488478078327,,,
3.7262370000000002,1774476759.365876,0.2669571754724,9.742783449466822,-1.6657944224200887,-1.78698149,-0.28382252711555395,2.368800832809873,,,
3.7344980000000003,1774476759.3745978,0.2597744711996,9.736196151155093,-1.676632865847363,-1.83184295,-0.318376434133968,2.422009184654451,,,
3.7427580000000003,1774476759.382447,0.2627672646466,9.732558831327456,-1.676471660464881,-1.82436604,-0.349185057490479,2.420913811357923,,,
3.7510190000000003,1774476759.390569,0.2579787951314,9.734388783619579,-1.6707413203645867,-1.71221239,-0.3418715359185629,2.419359274289076,,,
3.7592790000000003,1774476759.399095,0.266358616783,9.737440624701721,-1.6707780783924056,-1.5925818299999999,-0.30950837549320503,2.4277681691575195,,,
3.7675400000000003,1774476759.4073741,0.2549860016844,9.746559389920328,-1.673940193558004,-1.62996638,-0.37222099550275506,2.4563860459209748,,,
3.7758000000000003,1774476759.415381,0.2430148278964,9.747854794765985,-1.6736036095218343,-1.5925818299999999,-0.325230791933565,2.461685866651725,,,
3.7840610000000003,1774476759.4243069,0.2406205931388,9.756410665995707,-1.6650193917496983,-1.5925818299999999,-0.29149014019124997,2.5844611963054502,,,
3.7923210000000003,1774476759.431594,0.2436133865858,9.756673733976237,-1.6724184787596361,-1.5701511,-0.38218442744004605,2.481435684774417,,,
3.8005820000000003,1774476759.44068,0.2507960908586,9.768258861531491,-1.6754929045983906,-1.5103358199999999,-0.44910149488381795,2.526235141750551,,,
3.8088420000000003,1774476759.44908,0.2525917669268,9.77148608126732,-1.6804623872995013,-1.57762801,-0.42359269225805707,2.574320718616269,,,
3.8171030000000004,1774476759.457988,0.2466061800328,9.764086994257383,-1.6807254552800337,-1.54024346,-0.43309696042302903,2.6374925023981377,,,
3.8253630000000003,1774476759.4654138,0.2406205931388,9.763515688783091,-1.6891710524262997,-1.60753565,-0.5057730123698702,2.6911600180150352,,,
3.8336240000000004,1774476759.475671,0.24540906265399998,9.766069740446582,-1.6915497254361016,-1.5701511,-0.591980734164015,2.7171279844131146,,,
3.8418840000000003,1774476759.480937,0.2519932082374,9.756116601773154,-1.689434120406832,-1.52528964,-0.590885360867487,2.686319361056604,,,
3.8501450000000004,1774476759.489975,0.2448105039646,9.75052488229873,-1.6955887338701408,-1.60005874,-0.655788727470093,2.776554484533081,,,
3.8584050000000003,1774476759.498753,0.2501975321692,9.754659991545019,-1.6934080242706397,-1.61501256,-0.6819337396200631,2.7973996759523008,,,
3.8666650000000002,1774476759.506502,0.2525917669268,9.75048812427091,-1.6986405749522824,-1.68978166,-0.7528782087461671,2.751327799927749,,,
3.8749260000000003,1774476759.514613,0.25319032561620003,9.751418598537983,-1.6798684970685993,-1.60005874,-0.7464830147188888,2.6735289730020484,,,
3.8831860000000002,1774476759.523517,0.2537888843056,9.752538624729949,-1.6745991883591376,-1.50285891,-0.783050622578469,2.681301658346283,,,
3.8914470000000003,1774476759.530719,0.2567816777526,9.767379318563442,-1.699783185900861,-1.62996638,-0.8007867398599948,2.6697836893401448,,,
3.8997070000000003,1774476759.5472069,0.2555845603738,9.764576372190627,-1.6985754703820508,-1.60005874,-0.8787626125375859,2.770441408526232,,,
3.9079680000000003,1774476759.547507,0.2681542928512,9.762571041244815,-1.6993730858090534,-1.60753565,-0.945502634229468,2.7081879522890007,,,
3.9162280000000003,1774476759.557343,0.2699499689194,9.76493554098341,-1.6882489896446342,-1.5626741899999999,-0.901162341025653,2.7369828748043457,,,
3.924488,1774476759.564013,0.26037302988899996,9.765594535784544,-1.682269754835014,-1.52528964,-0.8983353849083882,2.606434859806386,,,
3.9327490000000003,1774476759.5737758,0.2687528515406,9.766604287893053,-1.6861559693719772,-1.68230475,-0.8023412769288418,2.662470167768229,,,
3.941009,1774476759.580089,0.2789283492604,9.754572302218175,-1.6909416619339939,-1.66735093,-0.6864203050747137,2.668406198023188,,,
3.9492700000000003,1774476759.58976,0.2747384384346,9.746412357809053,-1.6861475578865708,-1.60753565,-0.643457503187856,2.582834685753252,,,
3.95753,1774476759.5972302,0.2705485276088,9.758209622045813,-1.6911028673164754,-1.61501256,-0.569226914172168,2.5364806917082707,,,
3.9657910000000003,1774476759.605574,0.2729427623664,9.767577281973745,-1.6930940249910822,-1.60005874,-0.47277364242030295,2.6306381445985414,,,
3.9740510000000002,1774476759.613677,0.2711470862982,9.7601640216926,-1.6847870484706846,-1.6224894699999999,-0.399179262928824,2.6532149188384975,,,
3.982311,1774476759.621728,0.2687528515406,9.768111829420215,-1.6877002689269573,-1.6224894699999999,-0.21012307535553598,2.643605578404987,,,
3.9905720000000002,1774476759.632687,0.26935141023000003,9.769231855612182,-1.6824309602174956,-1.6748278399999998,-0.251990503945866,2.698368467318412,,,
3.991147,1774476759.6301398,,,,,,,68.49461,-87.77981793341328,89.35067727711156
3.991514,1774476759.630507,,,,,,,71.119158,-88.00830317568983,89.86100021428668
3.991899,1774476759.630892,,,,,,,71.0703292,-87.7450353126924,89.45560324785178
3.992561,1774476759.6315541,,,,,,,70.9482572,-87.85267084969776,89.06664465563053
3.992701,1774476759.631694,,,,,,,71.3388876,-87.74324694812663,89.40530345461667
3.992860,1774476759.631853,,,,,,,70.8994284,-88.62319956042141,87.90755448464027
3.993413,1774476759.632406,,,,,,,70.7895636,-87.62655208056455,88.95618204463211
3.993571,1774476759.632564,,,,,,,68.7143396,-87.91190303569967,86.73301061003076
3.9988330000000003,1774476759.639352,0.2585773538208,9.763091415420078,-1.6854092852439997,-1.60753565,-0.3772386982130761,2.6485513076319567,,,
4.007093,1774476759.647678,0.2561831190632,9.764335888966707,-1.679554497789042,-1.65987402,-0.34441637401539893,2.6950823474288277,,,
4.015354,1774476759.6558468,0.2495989734798,9.758444343483932,-1.6813618653245543,-1.7047354799999999,-0.36791147579999406,2.692432437063453,,,
4.023614,1774476759.663232,0.2478032974116,9.767599866730356,-1.6814721394080112,-1.68978166,-0.410697231934962,2.670951036120024,,,
4.031875,1774476759.675363,0.2466061800328,9.77033770853294,-1.6685916070071045,-1.7346431199999999,-0.5172909813760079,2.708896135296561,,,
4.040135,1774476759.67921,0.24540906265399998,9.754778677113881,-1.664060570940214,-1.78698149,-0.577635809040612,2.5688438521336288,,,
4.048396,1774476759.689273,0.2495989734798,9.745425190457157,-1.6706394577665367,-1.8168891299999999,-0.7097383611074187,2.5587033744444483,,,
4.056656,1774476759.696314,0.2430148278964,9.736569493219081,-1.674876429610876,-1.83184295,-0.8728265822826269,2.654520436672104,,,
4.064917,1774476759.7045681,0.2555845603738,9.75220204069378,-1.673303783513483,-1.90661205,-0.9497070816636899,2.72436953250168,,,
4.073177,1774476759.712592,0.2699499689194,9.761832768602243,-1.6826940281980274,-1.83184295,-0.9237391152656099,2.810577254295825,,,
4.081438,1774476759.721716,0.266358616783,9.760537363756589,-1.6830306122341976,-1.74212003,-1.006660717170171,2.744119350624372,,,
4.089698,1774476759.729749,0.2699499689194,9.75867906492205,-1.6716208633326337,-1.72716621,-1.073400738862053,2.6818658943871414,,,
4.097959,1774476759.740615,0.2837168187756,9.774048544416216,-1.6626491302253028,-1.7944584,-1.137031686416241,2.634239481293742,,,
4.106219,1774476759.746072,0.2914980817378,9.774158818499671,-1.6534936069788777,-1.80193531,-1.1384091777331982,2.5198730465084607,,,
4.11448,1774476759.75619,0.2968851099424,9.772702208271536,-1.657467510842685,-1.77950458,-1.025879398037193,2.366006975477796,,,
4.12274,1774476759.76207,0.2980822273212,9.782106626227288,-1.6564068274351504,-1.7944584,-0.9080497976104378,2.165150700877941,,,
4.131,1774476759.773073,0.2920966404272,9.791935317546052,-1.6591079112099156,-1.89165823,-0.8677369060889548,2.1030742903926,,,
4.139261,1774476759.779347,0.2831182600862,9.789703676647527,-1.6494545985448392,-1.83184295,-0.7874652145497687,2.193027295848648,,,
4.147521,1774476759.788219,0.290300964359,9.77165569813521,-1.6566331373878636,-1.80941222,-0.6997029556867769,2.174372851022484,,,
4.155782,1774476759.795428,0.28910384698020003,9.748411926969068,-1.6565879678746387,-1.9290427799999998,-0.6269218314713971,2.372933306760744,,,
4.164042,1774476759.8054788,0.2879067296014,9.74380161306074,-1.6494887068730515,-1.65239711,-0.441151763787693,2.4557498363967656,,,
4.172303,1774476759.811618,0.2825197013968,9.737499967486153,-1.6561043517271927,-1.74212003,-0.39854305340461493,2.5842841505535596,,,
4.180563,1774476759.823179,0.2867096122226,9.750804773250074,-1.6626039607120777,-1.71221239,-0.4802642097441089,2.7392455948807535,,,
4.188823,1774476759.8286679,0.28012546663919996,9.751712662760534,-1.6554537684114659,-1.61501256,-0.37010222239305,2.754049683776475,,,
4.197084,1774476759.8379269,0.2759355558134,9.7451111911776,-1.6577221673378113,-1.47295127,-0.28481282814354303,2.651837427521541,,,
4.205344,1774476759.8448708,0.2675557341618,9.738122204259469,-1.6531769579997138,-1.43556672,-0.223936863223269,2.470730971044378,,,
4.213605,1774476759.8528798,0.2627672646466,9.74218379745012,-1.6570999305644967,-1.42808981,-0.331271894457063,2.325378867150696,,,
4.221865,1774476759.8611782,0.2507960908586,9.747240969478074,-1.6563390731653125,-1.39070526,-0.337490042732451,2.296124780863032,,,
4.230126,1774476759.869683,0.24421194527520002,9.751814525358583,-1.6664901752490409,-1.42808981,-0.425075255843553,2.207726312475831,,,
4.238386,1774476759.8779788,0.2501975321692,9.748938062930131,-1.671386141894514,-1.39818217,-0.537710107808097,2.109364412151339,,,
4.246646,1774476759.885833,0.26037302988899996,9.75475609235727,-1.675682456523285,-1.3458438,-0.6651490486683629,2.121164499177906,,,
4.254907,1774476759.8951418,0.2639643820254,9.772679623514925,-1.6690893964257563,-1.39070526,-0.720088983333678,2.186349983800941,,,
4.263168,1774476759.90798,0.26456294071479997,9.7783732055874,-1.673971189800023,-1.46547436,-0.77128363433709,2.19723174328287,,,
4.271428,1774476759.910697,0.2669571754724,9.775870085222934,-1.6771107202090085,-1.50285891,-0.7967924369628507,2.149146166417152,,,
4.279689,1774476759.919966,0.2711470862982,9.77558443248579,-1.6813335187821417,-1.52528964,-0.654267289186434,2.1723591501813178,,,
4.287949,1774476759.927936,0.2687528515406,9.775870085222934,-1.6771107202090085,-1.5103358199999999,-0.593109206245731,2.136427751845947,,,
4.29621,1774476759.938228,0.266358616783,9.773491412213135,-1.6796647718724986,-1.72716621,-0.6030726381830219,2.161477390699389,,,
4.30447,1774476759.943776,0.2615701472678,9.771361633912656,-1.681047866044997,-1.71221239,-0.42708895668471886,2.1622906459754883,,,
4.312731,1774476759.9520168,0.2561831190632,9.759380579536803,-1.691351762025801,-1.5103358199999999,-0.12568003516731596,2.105868147724677,,,
4.320991,1774476759.960126,0.2376277996918,9.762703900084883,-1.6785956769795571,-1.60753565,-0.08088057819118194,2.1727852151684495,,,
4.329252,1774476759.969283,0.2340364475554,9.778220411690326,-1.6574165795436602,-1.8467967699999999,-0.02784927209849397,2.314392035400228,,,
4.337512,1774476759.976976,0.2322407714872,9.780613257971332,-1.6634325723810994,-1.8692275,0.03129511000104307,2.233024970564514,,,
4.345773,1774476759.9852061,0.2196710390098,9.779433888994935,-1.683375607755774,-1.95147351,-0.05254481944815598,2.090322777036207,,,
4.354033,1774476759.993503,0.212488334737,9.754580713703579,-1.6707497318499929,-1.96642733,-0.040567686669698955,2.110708804683108,,,
4.362294,1774476760.001715,0.203509954396,9.734227578237098,-1.6743786401922243,-1.8168891299999999,0.017304276381420014,2.1672032764172697,,,
4.370554,1774476760.010405,0.197524367502,9.747006248039956,-1.6660800751572333,-1.88418132,-0.05364019274468401,2.1211314003927177,,,
4.378815,1774476760.019201,0.19513013274440003,9.762426658833144,-1.6626265454686902,-1.86175059,-0.1790654327637839,2.1783671539196283,,,
4.387075,1774476760.027593,0.1903416632292,9.77763493294483,-1.657292132188997,-1.80193531,-0.27138623056477795,2.427309005385201,,,
4.395336,1774476760.035918,0.20171427832779998,9.761665801433962,-1.6575693734407355,-1.9290427799999998,-0.47807346315105304,2.6776283481677314,,,
4.403596,1774476760.042939,0.20171427832779998,9.75327113558672,-1.662516271385234,-1.80193531,-0.5516678426425319,2.655051573927774,,,
4.411857,1774476760.051082,0.2136854521158,9.7435301335948,-1.6622815499471144,-1.78698149,-0.752241999221958,2.682397031642811,,,
4.420117,1774476760.060271,0.22864941935080002,9.752671483570019,-1.6538217795296413,-1.68230475,-0.8116684993419239,2.618589038336733,,,
4.428378,1774476760.068067,0.2370292410024,9.771932939386947,-1.672602268898731,-1.65987402,-0.8303229441680878,2.530826779473741,,,
4.436638,1774476760.076472,0.233437888866,9.769913435169927,-1.664829839824804,-1.71221239,-0.8237507043889201,2.3459750393346748,,,
4.444899,1774476760.084362,0.2322407714872,9.755101087878847,-1.656785931284939,-1.6224894699999999,-0.824669031933558,2.269730749477821,,,
4.453159,1774476760.095215,0.23523356493419997,9.755972219361487,-1.6526875800664689,-1.63744329,-0.834632463870849,2.294780388331263,,,
4.46142,1774476760.100715,0.24421194527520002,9.748038584905078,-1.658344404111126,-1.7047354799999999,-0.820641630251226,2.360602082478507,,,
4.46968,1774476760.11124,0.2537888843056,9.735568152595977,-1.650798284989912,-1.78698149,-0.8177096018654217,2.482282038835704,,,
4.477941,1774476760.119492,0.2555845603738,9.7364025260508,-1.6497517748535837,-1.8467967699999999,-0.8746632373719029,2.5020318569583955,,,
4.486201,1774476760.126461,0.2507960908586,9.72921557572237,-1.651895726425266,-1.61501256,-0.7122112257209039,2.475145563015678,,,
4.494462,1774476760.134036,0.2507960908586,9.74497257055173,-1.6497376015823775,-1.4804281799999999,-0.574526734902918,2.5834708952774608,,,
4.502722,1774476760.14292,0.2406205931388,9.75810199766196,-1.65130448589397,-1.52528964,-0.5035822657768139,2.629542771302013,,,
4.510983,1774476760.1509602,0.24002203444939998,9.759448333806642,-1.656486105276588,-1.53276655,-0.43309696042302903,2.6374925023981377,,,
4.519243,1774476760.159557,0.24600762134339998,9.770425397859784,-1.6710579693437502,-1.55519728,-0.4847507751987601,2.6102521169516395,,,
4.527504,1774476760.167294,0.23523356493419997,9.776639354107527,-1.6619759621529628,-1.45799745,-0.42359269225805707,2.574320718616269,,,
4.535764,1774476760.1753511,0.2292479780402,9.780415294561031,-1.6701217332908784,-1.42808981,-0.39607018879113,2.66784196198233,,,
4.544025,1774476760.183239,0.2238609498356,9.780502983887876,-1.6725880956275243,-1.63744329,-0.4488193768633889,2.6714101998923434,,,
4.552285,1774476760.3000698,0.2226638324568,9.772730554813949,-1.6746075998445435,-1.65987402,-0.4829141201094841,2.762740696665348,,,
4.560546,1774476760.300338,0.2280508606614,9.774187165042086,-1.6706336959807362,-1.72716621,-0.561349156559394,2.825276270923008,,,
4.568806,1774476760.300491,0.2226638324568,9.777289937423253,-1.676188657427343,-1.7196893,-0.7060650509288668,2.863680533871864,,,
4.577067,1774476760.300986,0.22445950852500002,9.772246938666504,-1.6855195593274563,-1.80941222,-0.8663263159868099,2.82894958110156,,,
4.585327,1774476760.301945,0.24421194527520002,9.771471907996114,-1.671892342798572,-1.8467967699999999,-0.8474948254087561,2.8096589267511867,,,
4.5935880000000004,1774476760.307497,0.2490004147904,9.769854092385497,-1.679503566490017,-1.8467967699999999,-0.8306770356718681,2.7449326059004706,,,
4.601848,1774476760.307779,0.25319032561620003,9.765566189242131,-1.6651296658331547,-1.89913514,-0.9563843937113969,2.6569933012855893,,,
4.6101090000000005,1774476760.3082361,0.2537888843056,9.7623389695063,-1.660160183132044,-1.9439966,-0.9402028134987181,2.661197748719811,,,
4.618369,1774476760.308583,0.263365823336,9.762141006096,-1.6668493440418235,-2.03371952,-0.962602541986785,2.627739214997925,,,
4.6266300000000005,1774476760.308803,0.2741398797452,9.753746340248759,-1.6717962419863215,-2.02624261,-0.8247410054169091,2.629011634046343,,,
4.63489,1774476760.308894,0.28072402532859997,9.759448333806642,-1.656486105276588,-2.01128879,-0.8560087925457388,2.589794115821388,,,
4.6431510000000005,1774476760.308995,0.2759355558134,9.773089723606732,-1.6642811191071272,-1.89913514,-0.7813190397577321,2.581562266704834,,,
4.651411,1774476760.309579,0.2717456449876,9.768442651670584,-1.6602336991876818,-1.89165823,-0.602226284121735,2.597002565124765,,,
4.6596720000000005,1774476760.310144,0.28491393615439997,9.766063978660782,-1.6627877508511717,-2.13091935,-0.5957260178259179,2.771431709554221,,,
4.667932,1774476760.310346,0.2795269079498,9.770696877325726,-1.6582651262696881,-2.04119643,-0.4341923337195569,2.6683011257546494,,,
4.6761930000000005,1774476760.3163981,0.2759355558134,9.772863413654019,-1.6538301910150477,-2.04867334,-0.37239804125464493,2.5634389591343396,,,
4.684453,1774476760.32393,0.2651614994042,9.75847533972595,-1.6495480496574828,-1.9439966,-0.35448487822122904,2.467904014927113,,,
4.6927140000000005,1774476760.332895,0.2519932082374,9.758563029052793,-1.6520144119941287,-2.05615025,-0.40165212754230895,2.5696571074097276,,,
4.700974,1774476760.341878,0.23942347576,9.757816344924816,-1.6555272844671032,-2.04867334,-0.4182928715273071,2.527330515047079,,,
4.7092350000000005,1774476760.349308,0.24181771051759998,9.749693158543513,-1.6476813393375387,-2.0038118799999998,-0.3446984920358279,2.549907289287036,,,
4.717495,1774476760.3573592,0.2388249170706,9.748983232443354,-1.6481423707283718,-2.0038118799999998,-0.4464515845184429,2.502740039965956,,,
4.7257560000000005,1774476760.365254,0.236430682313,9.758848681789939,-1.6477916134209953,-1.89165823,-0.623989803085593,2.4946132631179405,,,
4.7340160000000004,1774476760.37787,0.236430682313,9.74416078185352,-1.6391622261356347,-2.1458731699999998,-0.627735086747496,2.548916988259047,,,
4.7422770000000005,1774476760.387927,0.24002203444939998,9.734829879953407,-1.6341192273788865,-2.01128879,-0.5482046770010582,2.455572790644876,,,
4.7505370000000005,1774476760.40182,0.2495989734798,9.7379835836336,-1.6451923922442806,-1.7645507599999999,-0.60452210298333,2.40639184048263,,,
4.7587980000000005,1774476760.401967,0.2555845603738,9.7401642932331,-1.64932750149057,-1.78698149,-0.601590074597526,2.5280717968398267,,,
4.7670580000000005,1774476760.406943,0.2657600580936,9.757626792999924,-1.6420245152928825,-1.69725857,-0.7334105086439041,2.6631063772924377,,,
4.7753190000000005,1774476760.414631,0.2567816777526,9.76324685901676,-1.6530099908314324,-1.66735093,-0.728746897437363,2.6850469420081864,,,
4.7835790000000005,1774476760.429686,0.26037302988899996,9.758710061164072,-1.6398070476655622,-1.6449202,-0.729206061209682,2.646924797079759,,,
4.784386,1774476760.423379,,,,,,,71.180194,-87.82504168723992,89.37276979931124
4.784498,1774476760.423491,,,,,,,68.372538,-87.62845795285823,89.59306287389748
4.784641,1774476760.4236338,,,,,,,70.4355548,-87.61069181492856,89.67664597757651
4.784911,1774476760.423904,,,,,,,71.16798680000001,-87.77993544114119,89.9372583131418
4.788596,1774476760.4275892,,,,,,,70.5820412,-87.84736922489544,90.50070811754507
4.790425,1774476760.429418,,,,,,,70.6674916,-87.63336244570583,89.98098275669147
4.790526,1774476760.4295192,,,,,,,70.6186628,-87.9829770174804,88.9820228425242
4.790607,1774476760.4296,,,,,,,70.45996919999999,-87.78558958912727,90.26293795931795
4.7918400000000005,1774476760.430909,0.2537888843056,9.764301780638496,-1.6336524342022536,-1.54024346,-0.697761228328962,2.579089402091349,,,
4.8001000000000005,1774476760.4403389,0.2687528515406,9.764177333283833,-1.6342379129477496,-1.68978166,-0.746305968966999,2.566476059788683,,,
4.8083610000000006,1774476760.448545,0.2495989734798,9.774489640750044,-1.6260270372396026,-1.89913514,-0.795769037149674,2.477618427629163,,,
4.8166210000000005,1774476760.458596,0.2525917669268,9.785328084177317,-1.6326143355513312,-1.71221239,-0.6591079461448649,2.257471498678935,,,
4.824882000000001,1774476760.464384,0.2490004147904,9.791841866433408,-1.6278795742883398,-1.7944584,-0.584877357129177,2.211117504633954,,,
4.8331420000000005,1774476760.472621,0.242416269207,9.781778453676523,-1.634919492505495,-1.80193531,-0.6861712858394728,2.202072400241301,,,
4.841403000000001,1774476760.4811032,0.23463500624480002,9.76062770278304,-1.6365430699019137,-1.8467967699999999,-0.702352866052152,2.1978679528070786,,,
4.8496630000000005,1774476760.489959,0.2310436541084,9.740362256643401,-1.6426383405807905,-1.83184295,-0.7011524204870849,2.419287300805725,,,
4.857924000000001,1774476760.4984078,0.24600762134339998,9.740486703998064,-1.6420528618352945,-1.75707385,-0.6804842748197549,2.5524852261690603,,,
4.8661840000000005,1774476760.5066218,0.24540906265399998,9.753901783845441,-1.6393969475737544,-1.75707385,-0.7029559767911728,2.878307577015696,,,
4.874445000000001,1774476760.5139961,0.25319032561620003,9.74967898527231,-1.6391112948366096,-1.74212003,-0.6124387352942671,3.088386001760094,,,
4.8827050000000005,1774476760.523556,0.26456294071479997,9.744658571272172,-1.6368203111536517,-1.65239711,-0.6395020749888748,3.03298690332246,,,
4.890966000000001,1774476760.53284,0.2657600580936,9.744336160507208,-1.6440949508089269,-1.46547436,-0.635579745575082,2.8716302649679886,,,
4.8992260000000005,1774476760.541215,0.2579787951314,9.757816344924816,-1.6555272844671032,-1.43556672,-0.641161684326261,2.773445410395387,,,
4.907487000000001,1774476760.547128,0.2567816777526,9.758760992463095,-1.6453252510843497,-1.38322835,-0.5694039599240581,2.643533604921636,,,
4.9157470000000005,1774476760.555896,0.2537888843056,9.759185265826108,-1.64908701826665,-1.40565908,-0.603144611666373,2.520758275267911,,,
4.924008000000001,1774476760.563091,0.2579787951314,9.748448684996884,-1.6535361267924962,-1.4804281799999999,-0.6266397134509679,2.518108364902536,,,
4.9322680000000005,1774476760.573083,0.2507960908586,9.756506766807956,-1.6472938240023443,-1.37575144,-0.6750074083371149,2.3984421093865045,,,
4.940529000000001,1774476760.58086,0.2579787951314,9.755299051289144,-1.6500967703751597,-1.35332071,-0.7625926214482168,2.310043640999304,,,
4.9487890000000005,1774476760.588732,0.27354132105580004,9.741174045341609,-1.6532137160275329,-1.50285891,-0.8106781983139351,2.335552443625065,,,
4.957050000000001,1774476760.5995378,0.2741398797452,9.75605990868833,-1.6551539424031145,-1.50285891,-0.8195462569546978,2.3297934591219964,,,
4.965310000000001,1774476760.6076128,0.2729427623664,9.770719462082337,-1.6466432406866167,-1.30098234,-0.7269433411332749,2.2260266657982153,,,
4.973571000000001,1774476760.613645,0.26935141023000003,9.774407713208998,-1.652322649487886,-1.35332071,-0.631867560698367,2.205817683903204,,,
4.981832000000001,1774476760.6236858,0.2585773538208,9.771406803425883,-1.6578040948788548,-1.47295127,-0.48623333878425595,2.243657710811202,,,
4.990092000000001,1774476760.6300108,0.2537888843056,9.761190596771922,-1.6482894028396473,-1.42808981,-0.20411507161722603,2.1684037219823367,,,
4.998353000000001,1774476760.6385338,0.24540906265399998,9.760245949233642,-1.6584914362224008,-1.44304363,-0.24379175361449995,2.16154936418274,,,
5.006613000000001,1774476760.647866,0.2316422127978,9.774721712488555,-1.6652399399166116,-1.42808981,-0.19167877506645004,2.2269118945576647,,,
5.014874000000001,1774476760.655446,0.21188977604759998,9.77239397077778,-1.6733121949988894,-1.40565908,-0.16058803368951008,2.3731823259959848,,,
5.023134000000001,1774476760.6628249,0.2029113957066,9.770060467281201,-1.6526224754962373,-1.4804281799999999,-0.21086435714828394,2.460308375334768,,,
5.031395000000001,1774476760.6769018,0.20470707177480002,9.773296098502438,-1.6374000281133476,-1.63744329,-0.3947977697427119,2.529980425412454,,,
5.039655000000001,1774476760.679146,0.2106926586688,9.783387857801737,-1.647500198898051,-1.4804281799999999,-0.43977427247073597,2.570116271182047,,,
5.047916000000001,1774476760.687659,0.2023128370172,9.771370045398063,-1.660855935960997,-1.40565908,-0.4196703628442639,2.4129640802617978,,,
5.056177,1774476760.697154,0.2136854521158,9.751339320696546,-1.6572102046479533,-1.52528964,-0.6359669358640501,2.47422723547104,,,
5.064437000000001,1774476760.704365,0.2232623911462,9.748375168941248,-1.6596398089567799,-1.4206129,-0.721997611906305,2.393142288655755,,,
5.072698,1774476760.712069,0.22505806721439997,9.773375376343875,-1.6600583205339936,-1.39070526,-0.662394066034449,2.349897368748468,,,
5.080958000000001,1774476760.723559,0.2340364475554,9.784609746591752,-1.6532672970261642,-1.54024346,-0.80308255872159,2.47917296469801,,,
5.089219,1774476760.7290082,0.2292479780402,9.794972985356987,-1.650574624736805,-1.4804281799999999,-0.8183458113896311,2.551212807120642,,,
5.097479000000001,1774476760.738225,0.2406205931388,9.793304238447345,-1.6526676450094624,-1.47295127,-0.8058044425703161,2.8619489510511267,,,
5.10574,1774476760.745096,0.2537888843056,9.783650925782268,-1.6548992859079887,-1.51781273,-0.7865137882199429,2.880780441629181,,,
5.114,1774476760.753189,0.2639643820254,9.77692500684467,-1.6577531635798297,-1.75707385,-0.8651258704217429,3.050368929100206,,,
5.122261,1774476760.761258,0.2651614994042,9.778183653662506,-1.6604684206258018,-1.71221239,-0.8622989143044779,2.9198209141022455,,,
5.130521,1774476760.7707598,0.266358616783,9.778630511782133,-1.6526083022250309,-1.7196893,-0.641161684326261,2.773445410395387,,,
5.138782,1774476760.7789068,0.2597744711996,9.77628859680015,-1.652110512806379,-1.80193531,-0.606430731555957,2.613184145337444,,,
5.147042,1774476760.7884312,0.2549860016844,9.758599787080612,-1.648962570911987,-1.8467967699999999,-0.5958310900944572,2.519203738199064,,,
5.155303,1774476760.7950342,0.2507960908586,9.752496104916329,-1.6488890548563493,-1.77202767,-0.6443758307324939,2.506590395896398,,,
5.163563,1774476760.8094451,0.2472047387222,9.756280456855244,-1.6368428959102643,-1.69725857,-0.7988781112873681,2.462991384485331,,,
5.171824,1774476760.811716,0.2448105039646,9.750637806081793,-1.6374793059547854,-1.61501256,-0.6829571394332399,2.46892741474029,,,
5.180084,1774476760.82031,0.2472047387222,9.744336160507208,-1.6440949508089269,-1.61501256,-0.716238627403236,2.384274230014992,,,
5.188345,1774476760.828056,0.2621687059572,9.741994245525225,-1.6435971613902751,-1.57762801,-0.795769037149674,2.477618427629163,,,
5.196605,1774476760.839659,0.2597744711996,9.747673654326494,-1.6399089102636124,-1.50285891,-0.776478382799301,2.496449918207217,,,
5.204866,1774476760.844162,0.2585773538208,9.754538193889964,-1.6450395983472048,-1.54024346,-0.7778558741162578,2.382083483421936,,,
5.213126,1774476760.852622,0.2597744711996,9.755058568065227,-1.631075797782151,-1.50285891,-0.696134717776764,2.227122039094743,,,
5.221387,1774476760.862775,0.2657600580936,9.75649259353675,-1.6387237795014147,-1.5103358199999999,-0.5948407890664682,2.2361671434873958,,,
5.229647,1774476760.874134,0.24840185610100002,9.756331388154267,-1.6423610993290523,-1.48790509,-0.623635711581813,2.280507436691211,,,
5.237908,1774476760.877462,0.2501975321692,9.751873868143015,-1.651816448583828,-1.495382,-0.6049812667556489,2.368269695554203,,,
5.246169,1774476760.885611,0.23942347576,9.768304031044714,-1.6522491334322482,-1.3458438,-0.500578263907659,2.391941843090688,,,
5.254429,1774476760.8937201,0.2340364475554,9.766971868171241,-1.65563755855056,-1.37575144,-0.4965508622253269,2.4828131760913736,,,
5.26269,1774476760.9021802,0.221466715078,9.769774814544057,-1.6568452740693704,-1.42808981,-0.43355612419534806,2.5993703574697107,,,
5.27095,1774476760.911597,0.2280508606614,9.767608278215762,-1.6612802093240107,-1.41313599,-0.4905097597018291,2.6191201755924034,,,
5.279211,1774476760.919605,0.236430682313,9.771669871406413,-1.6652031818887925,-1.46547436,-0.5614542288279329,2.573048299567851,,,
5.287471,1774476760.927124,0.22445950852500002,9.767908104224114,-1.6656274552518069,-1.47295127,-0.64656657732555,2.56820764260942,,,
5.295732,1774476760.9349298,0.2328393301766,9.77168404467762,-1.6737732263897223,-1.52528964,-0.7693419069792751,2.6019482943517347,,,
5.303992,1774476760.943417,0.2340364475554,9.76691252538681,-1.6703112852157729,-1.48790509,-0.7447514318981521,2.573789581360599,,,
5.312253,1774476760.9515278,0.24002203444939998,9.770125571851434,-1.6667107234159542,-1.54772037,-0.6588258281244359,2.402646556820727,,,
5.320514,1774476760.959879,0.2472047387222,9.773924097061554,-1.6632346089707988,-1.5103358199999999,-0.699597883418238,2.4266008223776407,,,
5.328774,1774476760.968155,0.2478032974116,9.765105157851297,-1.6644197397329965,-1.68230475,-0.7372608645743459,2.465182131078387,,,
5.337035,1774476760.976476,0.2519932082374,9.755101087878847,-1.656785931284939,-1.7196893,-0.7749238457304541,2.503763439779133,,,
5.345295,1774476760.984566,0.2591759125102,9.761482011294868,-1.672828578851444,-1.7346431199999999,-0.795132827625465,2.408687659344225,,,
5.353556,1774476760.9926882,0.2657600580936,9.76752058888892,-1.6588138469873648,-1.54024346,-0.6424672021598672,2.299798091041584,,,
5.361816,1774476761.00179,0.2525917669268,9.758899613088966,-1.6533098168397835,-1.6224894699999999,-0.527182439829948,2.3746648895814815,,,
5.370077,1774476761.009583,0.2472047387222,9.772167660825065,-1.6628612669068097,-1.72716621,-0.5548819890487648,2.3881965594287853,,,
5.378338,1774476761.017681,0.23822635838120002,9.753432340969201,-1.658878951557596,-1.58510492,-0.4194933170923741,2.305911167048433,,,
5.386598,1774476761.026005,0.2268537432826,9.7639200270891,-1.655600800522741,-1.65987402,-0.3844802463016409,2.290824960132282,,,
5.394859,1774476761.0340219,0.2226638324568,9.749831779169384,-1.6556659050929725,-1.4804281799999999,-0.44966573092467604,2.2358850254669673,,,
5.403119,1774476761.042372,0.21188977604759998,9.751837110115197,-1.6548682896659703,-1.45799745,-0.45496555165542607,2.282875229036157,,,
5.41138,1774476761.051498,0.21488256949460002,9.759287128424159,-1.6601234251042252,-1.54024346,-0.5653045847583751,2.3751240533537996,,,
5.41964,1774476761.0592299,0.20949554129,9.767133073553723,-1.6520002387229225,-1.60005874,-0.668153050537518,2.3587654273892307,,,
5.427901,1774476761.0671911,0.21188977604759998,9.766510836780409,-1.6549276324504014,-1.53276655,-0.686348331591363,2.309125313454666,,,
5.436161,1774476761.0754619,0.2106926586688,9.784499472508296,-1.6624228202725895,-1.495382,-0.5274645578503769,2.229489831439689,,,
5.444422,1774476761.083576,0.20829842391120001,9.79466474786323,-1.6664193088930093,-1.6748278399999998,-0.6371673814291169,2.252807887472394,,,
5.452683,1774476761.091715,0.2088969826006,9.777414384777916,-1.6756031786818473,-1.77202767,-0.796687364694312,2.401374137772309,,,
5.460943,1774476761.10047,0.227452301972,9.78785113959879,-1.6668068242282046,-1.65239711,-0.7091021515832101,2.48977260615951,,,
5.469204,1774476761.1086478,0.2196710390098,9.778820063707025,-1.666111071399252,-1.85427368,-0.646107413553231,2.606329787537847,,,
5.477464,1774476761.117456,0.2226638324568,9.774546333834868,-1.6603072152433198,-1.90661205,-0.6179487005620949,2.63092026261897,,,
5.485725,1774476761.12522,0.22864941935080002,9.76449133256339,-1.647155203376475,-1.95147351,-0.651407234283981,2.653319991107037,,,
5.493985,1774476761.133148,0.2208681563886,9.761951454171108,-1.6533465748676022,-1.8767044099999999,-0.619680283382832,2.730659654260419,,,
5.502246,1774476761.142269,0.2172768042522,9.76405288592917,-1.6348233916932453,-1.98138115,-0.6848657680058667,2.6757197195951044,,,
5.5105070000000005,1774476761.15013,0.2088969826006,9.778104375821068,-1.6378101282051551,-1.97390424,-0.697761228328962,2.579089402091349,,,
5.518767,1774476761.158457,0.206502747843,9.778192065147913,-1.640276490541801,-1.85427368,-0.71422492656207,2.4297098965153348,,,
5.5270280000000005,1774476761.1661818,0.203509954396,9.77909995465837,-1.6331262982411892,-1.89913514,-0.747683460283956,2.452109625003402,,,
5.535288,1774476761.175084,0.212488334737,9.774305850610949,-1.641286242650311,-1.91408896,-0.8731087003030558,2.5093453785303117,,,
5.5435490000000005,1774476761.182812,0.19513013274440003,9.772973687737474,-1.6446746677686224,-1.85427368,-0.8857220426057218,2.557890119168349,,,
5.551809,1774476761.3011131,0.21548112818399998,9.766482490237998,-1.637787543448543,-1.7346431199999999,-0.9534523653255929,2.778673257642786,,,
5.5600700000000005,1774476761.301336,0.2292479780402,9.756602867620206,-1.6295682562549891,-1.80941222,-1.159680434139549,3.067114745353743,,,
5.5683300000000004,1774476761.3035939,0.2490004147904,9.759230435339335,-1.625843247100508,-1.80941222,-1.2174473249221291,3.262848244974738,,,
5.5765910000000005,1774476761.312329,0.2657600580936,9.754026231200104,-1.6388114688282587,-1.77950458,-1.099971815999154,3.2760977968016127,,,
5.584852000000001,1774476761.312738,0.2759355558134,9.758336719100082,-1.6415634839020494,-1.7047354799999999,-1.0093826010188969,3.126895336977489,,,
5.5931120000000005,1774476761.313209,0.2795269079498,9.756119251472763,-1.640480215737902,-1.77950458,-1.089654292558083,3.0369423315214408,,,
5.601373000000001,1774476761.313887,0.2825197013968,9.757963377036093,-1.643319920138537,-1.75707385,-0.9774066308825069,2.737901202348984,,,
5.6096330000000005,1774476761.314414,0.2741398797452,9.743165203016217,-1.6438460560996007,-1.69725857,-0.967266153193326,2.605798650282177,,,
5.617894000000001,1774476761.314662,0.2699499689194,9.743662992434867,-1.6415041411176177,-1.68978166,-0.8775952657577071,2.3803519006011986,,,
5.6261540000000005,1774476761.3147461,0.2651614994042,9.752431000346098,-1.634800806936632,-1.72716621,-0.797146528466631,2.3632519928438818,,,
5.634415000000001,1774476761.31486,0.26097158857839997,9.753403994426789,-1.6417388625557374,-1.61501256,-0.7594835473105228,2.324670684143136,,,
5.642676000000001,1774476761.315122,0.2549860016844,9.753616131108295,-1.6436197461468873,-1.60005874,-0.823291540616601,2.3840971842631022,,,
5.650936000000001,1774476761.3152,0.2711470862982,9.75810199766196,-1.65130448589397,-1.55519728,-0.8900315623084831,2.3218437280258706,,,
5.659197000000001,1774476761.315264,0.2747384384346,9.758760992463095,-1.6453252510843497,-1.39070526,-0.791387543963562,2.3543839342031188,,,
5.665116,1774476761.304109,,,,,,,68.79979,-87.68405937089567,88.15721104741715
5.665875,1774476761.304868,,,,,,,70.63087,-88.3050258956921,89.87415091365756
5.667178,1774476761.306171,,,,,,,68.75096119999999,-87.72709762820183,89.95098712109028
5.667457000000001,1774476761.315375,0.2717456449876,9.755907114791254,-1.6385993321467518,-1.53276655,-0.683698421225988,2.285630211670071,,,
5.669049,1774476761.308042,,,,,,,70.9604644,-87.85682568740688,89.51680477504236
5.670329,1774476761.3093219,,,,,,,70.45996919999999,-87.53605053407831,89.91037880582243
5.671164,1774476761.310157,,,,,,,70.8628068,-88.00859222997866,90.03578048075747
5.671622,1774476761.310615,,,,,,,70.9726716,-87.95021777678113,90.31041067856005
5.672020,1774476761.3110132,,,,,,,71.1557796,-88.224377943672,88.02246098763659
5.675718000000001,1774476761.315507,0.266358616783,9.748683406435005,-1.6437951248005755,-1.50285891,-0.548309749269597,2.2033448192897187,,,
5.683978000000001,1774476761.323634,0.2651614994042,9.748471269753498,-1.6419142412094259,-1.3458438,-0.35176299437250297,2.085128028573996,,,
5.692239000000001,1774476761.332454,0.2591759125102,9.746692248760398,-1.6531627847285075,-1.41313599,-0.209697010368405,2.070218867409735,,,
5.700499000000001,1774476761.342734,0.2478032974116,9.751376078724363,-1.654158363565811,-1.2710747,-0.17157486543997802,2.069759703637416,,,
5.708760000000001,1774476761.3487139,0.23942347576,9.75908916501386,-1.6668125860140046,-1.37575144,-0.07448538416390399,2.094986388242748,,,
5.717021000000001,1774476761.356647,0.2190724803204,9.754368577022074,-1.6688688482588427,-1.36079762,-0.13518430333228798,2.1690399315065463,,,
5.725281000000001,1774476761.3645482,0.2112912173582,9.77078456665257,-1.6607314886063336,-1.27855161,-0.035799003194618984,2.384877340754013,,,
5.733542,1774476761.3738902,0.2106926586688,9.7892568185279,-1.6573147169456097,-1.2561208799999999,-0.012303901410023965,2.387527251119388,,,
5.741802000000001,1774476761.382328,0.20590418915359998,9.795748016027376,-1.6642018412656892,-1.5103358199999999,-0.05865789545500505,2.3132966621037,,,
5.750063,1774476761.3964422,0.197524367502,9.78848754964331,-1.6724494750016552,-1.61501256,-0.14733848186263487,2.25570681707301,,,
5.758323000000001,1774476761.4005408,0.18854598716100002,9.770125571851434,-1.6667107234159542,-1.53276655,-0.24598250020755597,2.223166610895762,,,
5.766584,1774476761.406395,0.20171427832779998,9.776427217426019,-1.6600950785618127,-1.54772037,-0.24315554409029094,2.092618595897802,,,
5.774845,1774476761.414624,0.2136854521158,9.795162537281882,-1.6640773939110263,-1.7196893,-0.39345337721094303,2.0328380042740557,,,
5.783105,1774476761.422415,0.2136854521158,9.788034929737883,-1.6515476188174958,-1.68978166,-0.458356743813549,2.123073127750533,,,
5.791366,1774476761.431179,0.2226638324568,9.771406803425883,-1.6578040948788548,-1.74212003,-0.46492898359271706,2.307924867889599,,,
5.799626,1774476761.439643,0.22565662590379998,9.770162329879254,-1.6636588823338125,-1.7047354799999999,-0.5430819020221982,2.515635500289051,,,
5.807887,1774476761.4475698,0.22565662590379998,9.770645946026697,-1.6527469228509,-1.72716621,-0.5202230097618121,2.587216178939364,,,
5.816147,1774476761.4583712,0.2238609498356,9.781009184791932,-1.6500542505615408,-1.68230475,-0.530009395947213,2.5052129045794413,,,
5.824408,1774476761.4637702,0.227452301972,9.777796138327309,-1.6536548123613592,-1.62996638,-0.5681315408756401,2.50567206835176,,,
5.832668,1774476761.4726222,0.2238609498356,9.776712870163163,-1.6558722799886794,-1.58510492,-0.488141967356883,2.450450015666016,,,
5.840929,1774476761.480795,0.2232623911462,9.78106011609096,-1.6555724539803285,-1.6748278399999998,-0.520505127782241,2.442041120797572,,,
5.84919,1774476761.489043,0.233437888866,9.771890419573328,-1.6468921353959427,-1.83931986,-0.4717833413923141,2.347601549886873,,,
5.85745,1774476761.497949,0.2262551845932,9.775615428727809,-1.64951970311507,-1.8467967699999999,-0.43595701532548203,2.156531661472419,,,
5.865711,1774476761.50519,0.2262551845932,9.771254009528809,-1.6412494846224923,-2.04119643,-0.39737570662473604,2.194194642628527,,,
5.873971,1774476761.5132139,0.23583212362359998,9.767155658310337,-1.6403783531398515,-1.97390424,-0.47563369732275596,2.1496773036728216,,,
5.882232,1774476761.522209,0.233437888866,9.76280841238254,-1.6406781791482026,-1.96642733,-0.511742141410017,2.195572133945484,,,
5.890492,1774476761.530126,0.23523356493419997,9.761300870855377,-1.6391338795932222,-2.0038118799999998,-0.4811105638053961,2.3037204204553774,,,
5.898753,1774476761.540043,0.2268537432826,9.755658220081928,-1.639770289637743,-1.83931986,-0.53633261649114,2.2237308469366197,,,
5.907014,1774476761.546423,0.2196710390098,9.756778246273896,-1.6345009809282813,-1.8692275,-0.49785638005893307,2.009165856737571,,,
5.915274,1774476761.556733,0.20949554129,9.759032471929032,-1.632532408010287,-1.80193531,-0.363103917626751,1.9958112326421569,,,
5.923535,1774476761.563176,0.2088969826006,9.766694626919502,-1.6396684270396926,-1.83184295,-0.341799562435212,2.060078389720554,,,
5.931795,1774476761.574952,0.1981229261914,9.760115740093182,-1.6303149403829673,-1.83184295,-0.347099383165962,2.107068593289744,,,
5.940056,1774476761.580864,0.203509954396,9.766358042883335,-1.6383730221940387,-1.80941222,-0.406702929037818,2.150313513197031,,,
5.948316,1774476761.590366,0.1969258088126,9.758424408426926,-1.6440298462386953,-1.77202767,-0.30604520985173095,2.228289385874622,,,
5.956577,1774476761.596765,0.1939330153656,9.765501084671898,-1.6510414179134378,-1.71221239,-0.321131416767882,2.1932763150838888,,,
5.964837,1774476761.610231,0.18615175240339998,9.767792068354858,-1.6460210039133023,-1.68978166,-0.30028622534866195,2.219421327233859,,,
5.973098,1774476761.61277,0.1837575176458,9.768626441809678,-1.6449744937769737,-1.7047354799999999,-0.38246654546047504,2.3362606266326247,,,
5.981359,1774476761.623716,0.176574813373,9.76599887409055,-1.6486995029314548,-1.74212003,-0.38949794901196194,2.482990221843264,,,
5.989619,1774476761.629494,0.17956760682,9.769299609882019,-1.647565303468282,-1.61501256,-0.44242418283611096,2.5936113729666417,,,
5.99788,1774476761.64083,0.17837048944120001,9.752606378999788,-1.6397335316099244,-1.7346431199999999,-0.5119911606452581,2.661905931727371,,,
6.006141,1774476761.645695,0.1837575176458,9.752408415589485,-1.6464226925197034,-1.7346431199999999,-0.684406604233548,2.7138418645235305,,,
6.014401,1774476761.653897,0.1927358979868,9.757004556226608,-1.6449519090203613,-1.74212003,-0.724083286230822,2.706987506723934,,,
6.022662,1774476761.663092,0.18615175240339998,9.773632682538608,-1.638695432959002,-1.7346431199999999,-0.7889866528334281,2.7972226302004106,,,
6.030922,1774476761.6705961,0.203509954396,9.765809322165659,-1.635196733757234,-1.66735093,-0.8448449150433809,2.7861638249665917,,,
6.039183,1774476761.6790679,0.2088969826006,9.768598095267267,-1.627834404775115,-1.6224894699999999,-0.9601296773733002,2.7112970264266947,,,
6.0474440000000005,1774476761.688132,0.2178753629416,9.77040546280278,-1.6337259502578914,-1.72716621,-0.9774066308825069,2.737901202348984,,,
6.055704,1774476761.695446,0.230445095419,9.77006887876661,-1.632430545412237,-1.74212003,-0.9612250506698279,2.742105649783206,,,
6.0639650000000005,1774476761.70787,0.2202695976992,9.777408622992116,-1.6468412040969174,-1.7346431199999999,-0.8922942823848901,2.742741859307415,,,
6.072226000000001,1774476761.7125928,0.2298465367296,9.775799218866904,-1.634260497704362,-1.71221239,-0.838449721016103,2.7083649980408913,,,
6.0804860000000005,1774476761.720136,0.22505806721439997,9.761549765564704,-1.6379629221022305,-1.6748278399999998,-0.9062851160045131,2.676920165160171,,,
6.088747000000001,1774476761.728226,0.23463500624480002,9.765537842699718,-1.6479895768312962,-1.77202767,-0.7976776657223008,2.684410732483977,,,
6.0970070000000005,1774476761.7377741,0.23942347576,9.76136597542561,-1.653222127512939,-1.77202767,-0.7679644156623178,2.716314729137016,,,
6.105268000000001,1774476761.744523,0.236430682313,9.760540013456197,-1.6340767075652676,-1.66735093,-0.709915406859309,2.665756287657813,,,
6.113529000000001,1774476761.752851,0.2340364475554,9.758834508518735,-1.6392215689200664,-1.55519728,-0.5603588555314052,2.5422396762113397,,,
6.121789000000001,1774476761.7615051,0.22505806721439997,9.75393854187326,-1.6363451064916128,-1.6449202,-0.40119296376999003,2.607779252338155,,,
6.130050000000001,1774476761.770017,0.22565662590379998,9.774766882001783,-1.6419961687504694,-1.69725857,-0.3808069361230889,2.595802119559698,,,
6.138310000000001,1774476761.779427,0.2196710390098,9.78044629080305,-1.638307917623807,-1.65987402,-0.5242504114441439,2.496344845938678,,,
6.146571000000001,1774476761.785918,0.2071013065324,9.777233244338426,-1.6419084794236252,-1.6224894699999999,-0.443342510380749,2.5173670831097876,,,
6.154831000000001,1774476761.7943318,0.2136854521158,9.778008275008819,-1.6555356959525098,-1.55519728,-0.38812045769500503,2.5973566566285453,,,
6.163092000000001,1774476761.803334,0.20949554129,9.792930896383355,-1.6544240812459496,-1.5103358199999999,-0.40447908365957397,2.700205122407688,,,
6.171353000000001,1774476761.811214,0.212488334737,9.787375934936751,-1.6575268536271168,-1.71221239,-0.5053138485975509,2.729282162943462,,,
6.179613000000001,1774476761.819597,0.19572869143379998,9.777035280928127,-1.6485976403334046,-1.8692275,-0.521036265037911,2.7631998604376666,,,
6.187874000000001,1774476761.827641,0.20590418915359998,9.778989680574915,-1.6422818214876143,-1.92156587,-0.566931095310573,2.727091416350406,,,
6.196134000000001,1774476761.8355079,0.2088969826006,9.77672128164857,-1.6356803499046793,-2.05615025,-0.535945426202172,2.6211338764335688,,,
6.204395000000001,1774476761.843988,0.206502747843,9.776619419050519,-1.6246439430671038,-2.1683038999999997,-0.581204046950625,2.51609466406137,,,
6.212655000000001,1774476761.853003,0.20171427832779998,9.780432117531845,-1.6297378731228775,-2.19073463,-0.591626642660235,2.5030221579863845,,,
6.220916000000001,1774476761.860754,0.2041085130854,9.784179711442938,-1.620743555258934,-2.13091935,-0.5600047640276249,2.32813384978461,,,
6.229176000000001,1774476761.869697,0.19572869143379998,9.772857651868218,-1.6250682164301178,-2.15335008,-0.5992222822525801,2.35940163691344,,,
6.237437000000001,1774476761.8775501,0.1801661655094,9.759018298657828,-1.6239623635093579,-2.07858098,-0.610458133238289,2.522312812336758,,,
6.245698,1774476761.8854809,0.1831589589564,9.74977508608456,-1.6213857270892553,-2.07858098,-0.697938274080852,2.686142315304714,,,
6.253958000000001,1774476761.893951,0.19213733929739998,9.746621382404367,-1.610312562223861,-1.90661205,-0.666106250911164,3.0157099498132527,,,
6.262219,1774476761.9022121,0.1963272501232,9.759004125386621,-1.6153923190084285,-1.88418132,-0.786126597930975,3.2781834711261295,,,
6.270479000000001,1774476761.9107,0.20530563046419997,9.759055056685648,-1.6209105224272162,-1.93651969,-0.903497034585411,3.517161890654412,,,
6.27874,1774476761.918723,0.221466715078,9.758469577940149,-1.620786075072553,-1.80193531,-0.9511234476788099,3.5807928382086,,,
6.287000000000001,1774476761.928726,0.2262551845932,9.747967718549047,-1.615494181606479,-1.62996638,-1.001504843406123,3.415690916192226,,,
6.295261,1774476761.93502,0.24002203444939998,9.746276386882789,-1.629209087462207,-1.61501256,-0.979846396710804,3.2658522468438926,,,
6.303522,1774476761.952663,0.23942347576,9.744644398000966,-1.6282502666527228,-1.6449202,-1.0902905020822922,3.1058730998063786,,,
6.311782,1774476761.9538612,0.242416269207,9.744930050738109,-1.6240274680795892,-1.69725857,-1.099899842515803,2.9168169122330907,,,
6.320043,1774476761.961181,0.2561831190632,9.74113152552799,-1.627503582524745,-1.65239711,-1.314746950735281,2.7331656176590924,,,
6.328303,1774476761.967535,0.2597744711996,9.735774527491685,-1.623917193996133,-1.5701511,-1.2633752539799792,2.6152309449637983,,,
6.336564,1774476761.976119,0.275336997124,9.740034084092638,-1.6211510056511358,-1.47295127,-1.1874130821435538,2.469137559277368,,,
6.344824,1774476761.986184,0.2789283492604,9.751808763572782,-1.637728200664111,-1.3458438,-1.135582221615933,2.3893250315105012,,,
6.353085,1774476761.9946911,0.28491393615439997,9.766021458847165,-1.637077617348384,-1.36079762,-1.0531197834836912,2.4176607902535268,,,
6.361345,1774476762.001651,0.28491393615439997,9.757787998382403,-1.6383871954652447,-1.21873633,-0.8410276578981268,2.3725792152569634,,,
6.369606,1774476762.013967,0.2747384384346,9.775711529540057,-1.6317941353677154,-1.3458438,-0.650876097028311,2.3321612514669416,,,
6.373146,1774476762.012139,,,,,,,71.119158,-88.1111517275755,89.67070277530163
6.373476,1774476762.012469,,,,,,,68.4824028,-88.31516854444703,87.24304449291706
6.373890,1774476762.012883,,,,,,,70.813978,-88.03812726473016,90.36653616634212
6.374156,1774476762.013149,,,,,,,68.49461,-87.66531799243367,89.71321696286316
6.374357,1774476762.0133498,,,,,,,70.32569,-88.1245914812352,89.54876032177019
6.374789,1774476762.013782,,,,,,,70.2890684,-88.32798558075817,90.35326795924333
6.374869,1774476762.013862,,,,,,,70.5576268,-88.1635289396652,89.8939944704418
6.374923,1774476762.013916,,,,,,,70.4965908,-87.70887088942247,90.27159072785796
6.377867,1774476762.01755,0.2651614994042,9.78438343663904,-1.6428163689340851,-1.3458438,-0.40797534808623603,2.2881750497669073,,,
6.386127,1774476762.0256839,0.2436133865858,9.788430856558486,-1.638169296997938,-1.35332071,-0.2075782372587,2.367882505265235,,,
6.394388,1774476762.03458,0.23583212362359998,9.778081791064453,-1.649432013788226,-1.4206129,-0.077489386033059,2.3325873164540725,,,
6.402649,1774476762.042229,0.22445950852500002,9.774011786388398,-1.6657009713074447,-1.5701511,0.04775880823415102,2.382404476140528,,,
6.410909,1774476762.050665,0.2106926586688,9.778870995006052,-1.67162927481804,-1.50285891,0.11651253076719903,2.490093598878102,,,
6.41917,1774476762.060729,0.19453157405500002,9.773601686296589,-1.670509248626073,-1.60753565,-0.007076054162624912,2.6998179321187203,,,
6.42743,1774476762.067154,0.191538780608,9.778865233220252,-1.6428673002331102,-1.68230475,-0.05827070516603694,2.710699691600649,,,
6.435691,1774476762.074993,0.18555319371399998,9.789966744628058,-1.6568536855547766,-1.75707385,-0.30254894542506894,2.6403194585154033,,,
6.443952,1774476762.0841951,0.17956760682,9.77860792702552,-1.6642301878081018,-1.82436604,-0.472137432896094,2.561707376313603,,,
6.452212,1774476762.092302,0.1903416632292,9.768977199117057,-1.6548399431235574,-1.6449202,-0.612189716059026,2.622052203978207,,,
6.460473,1774476762.101102,0.1969258088126,9.766525010051616,-1.663497676951331,-1.74212003,-0.8721903727584182,2.5855896683871658,,,
6.468734,1774476762.1085389,0.1963272501232,9.779999432683425,-1.6461680360245778,-1.68978166,-1.007224953211029,2.453769234340788,,,
6.476994,1774476762.1175559,0.2076998652218,9.786125699604321,-1.6346196664971444,-1.8692275,-1.16345881658664,2.5099096145711703,,,
6.485255,1774476762.124542,0.2292479780402,9.785964494221838,-1.638256986324782,-1.9888580599999999,-1.311460830845697,2.6407397475895587,,,
6.493515,1774476762.134331,0.24840185610100002,9.776149976174278,-1.6441259470509453,-2.06362716,-1.2735157316691599,2.747333497030605,,,
6.501776,1774476762.141859,0.2699499689194,9.769483400021112,-1.6323060980575739,-2.04119643,-1.173317176255392,2.787187224779769,,,
6.5100370000000005,1774476762.15046,0.278329790571,9.770829736165792,-1.6374877174401916,-2.02624261,-1.020828596541684,2.7853505696904928,,,
6.5182970000000005,1774476762.159349,0.2825197013968,9.771884657787528,-1.6181301608110128,-1.98138115,-0.8986894764121679,2.8205406862331155,,,
6.5265580000000005,1774476762.1661382,0.28491393615439997,9.771013526304886,-1.622228512029483,-2.07110407,-0.8448449150433809,2.7861638249665917,,,
6.534819000000001,1774476762.175628,0.2855124948438,9.766476728452195,-1.609025568863613,-2.06362716,-0.7156743913623778,2.674624346298576,,,
6.5430790000000005,1774476762.183786,0.272344203677,9.75648683175095,-1.6099618049164848,-2.07858098,-0.46811003121376193,2.652578709314289,,,
6.551340000000001,1774476762.297337,0.257380236442,9.757408894532613,-1.6113816571168018,-1.98138115,-0.38985204051574196,2.697096048269994,,,
6.5596000000000005,1774476762.2983942,0.2490004147904,9.758667541350452,-1.6140969141627741,-1.98138115,-0.41582000691382204,2.610888326475849,,,
6.567861000000001,1774476762.30144,0.2490004147904,9.759128572741284,-1.6148068402629328,-2.10848862,-0.5609950650556139,2.611170444496278,,,
6.576122000000001,1774476762.3018,0.23583212362359998,9.760571009698214,-1.602262891898196,-1.85427368,-0.438042689649999,2.4703768795405976,,,
6.584382000000001,1774476762.302155,0.2370292410024,9.752264033177818,-1.6096761521793401,-1.74959694,-0.41592507918236094,2.358660355120692,,,
6.592643000000001,1774476762.302399,0.2436133865858,9.752761822596469,-1.6073342371973571,-1.74212003,-0.5323052148088079,2.314602179937306,,,
6.600904000000001,1774476762.3025799,0.2280508606614,9.762927097951403,-1.6113307258177771,-1.8467967699999999,-0.6580125728483373,2.2266628753224236,,,
6.609164000000001,1774476762.302994,0.2340364475554,9.763175992660729,-1.6101597683267856,-1.7047354799999999,-0.5773867898053708,2.102510054351742,,,
6.617425000000001,1774476762.3031921,0.230445095419,9.767362033206044,-1.613497262146072,-1.65987402,-0.6206317097126579,2.042906508479886,,,
6.625685000000001,1774476762.309421,0.227452301972,9.759238846824742,-1.6056513170165079,-1.4804281799999999,-0.6060046665688259,2.039797434342192,,,
6.633946000000001,1774476762.310011,0.2226638324568,9.776642003807131,-1.6130220574840324,-1.6449202,-0.6385448727460739,2.138441452687113,,,
6.642207,1774476762.31027,0.227452301972,9.76491825562601,-1.601963065889845,-1.6748278399999998,-0.568695776916498,2.215321952068176,,,
6.650467000000001,1774476762.3103518,0.21548112818399998,9.767698617242214,-1.6147926669917265,-1.60005874,-0.4656702653854649,2.12462766481938,,,
6.658728,1774476762.310693,0.2208681563886,9.759999704223924,-1.6107084890444625,-1.63744329,-0.41977543511280296,2.160736108906641,,,
6.666989,1774476762.310936,0.203509954396,9.7544079847495,-1.6168631025077709,-1.61501256,-0.33794920650477,2.258002635934605,,,
6.675249,1774476762.3144372,0.200517160949,9.75690269362856,-1.6339155021827858,-1.62996638,-0.30000410732823296,2.364596385375651,,,
6.68351,1774476762.3233569,0.1993200435702,9.748442923211085,-1.6247741522075672,-1.65987402,-0.42698388441618,2.414518617330645,,,
6.69177,1774476762.3313448,0.19453157405500002,9.763292028529984,-1.6297662196652902,-1.60005874,-0.4238748102784861,2.429145660474477,,,
6.700031,1774476762.339744,0.1939330153656,9.780183222822519,-1.630908830613869,-1.47295127,-0.352294131628173,2.406286768214091,,,
6.708292,1774476762.34757,0.1879474284716,9.773310271773646,-1.6459700726142772,-1.48790509,-0.387484248170796,2.528425888343607,,,
6.716552,1774476762.356884,0.18555319371399998,9.783461373857374,-1.6413965167337672,-1.39070526,-0.48164170106106596,2.624879160095472,,,
6.724813,1774476762.364565,0.19513013274440003,9.78242903699225,-1.6491321877798752,-1.53276655,-0.44214206481568186,2.738786431108434,,,
6.733074,1774476762.3770618,0.2011157196384,9.7858909781662,-1.6443606684890648,-1.40565908,-0.47807346315105304,2.6776283481677314,,,
6.741334,1774476762.3822641,0.2029113957066,9.78578911556815,-1.6333242616514898,-1.5103358199999999,-0.5443543210706159,2.653497036858927,,,
6.749595,1774476762.389295,0.1969258088126,9.78733341512313,-1.6318167201243285,-1.63744329,-0.580003601385558,2.737514012060016,,,
6.757855,1774476762.3987892,0.20590418915359998,9.780344428205,-1.6272715107862314,-1.54024346,-0.6025803756255149,2.8111083915514947,,,
6.766116,1774476762.409137,0.2130868934264,9.781939659059004,-1.6312821726778575,-1.7047354799999999,-0.6041349126943619,2.803794869979579,,,
6.774377,1774476762.419996,0.2208681563886,9.777855481111741,-1.6389810856961464,-1.7645507599999999,-0.63137529814086,2.85544868475531,,,
6.782637,1774476762.423017,0.2226638324568,9.764836328084966,-1.628258678138129,-1.75707385,-0.5983759281912929,2.794926811338816,,,
6.790898,1774476762.430627,0.2196710390098,9.765721632838812,-1.6327303714205879,-1.83184295,-0.653315862856608,2.860112295961851,,,
6.799159,1774476762.439959,0.22505806721439997,9.777467965776546,-1.6321674774317045,-1.75707385,-0.563999066924769,2.8487713727076027,,,
6.807419,1774476762.446812,0.2298465367296,9.780644254213351,-1.631618756714028,-1.7196893,-0.5507495150978942,2.731295863784628,,,
6.81568,1774476762.459417,0.2202695976992,9.776172560930894,-1.6325040614678747,-1.82436604,-0.6075261048524849,2.643992768693955,,,
6.82394,1774476762.46417,0.21488256949460002,9.766270353556491,-1.6359066598573926,-1.74959694,-0.608621478149013,2.674801392050466,,,
6.832201,1774476762.4724638,0.20590418915359998,9.780132291523492,-1.625390627195081,-1.80941222,-0.663384367062438,2.632933963460136,,,
6.8404620000000005,1774476762.4811468,0.1999186022596,9.765458564858282,-1.6253312844106502,-1.89165823,-0.668966305813617,2.5347491088875342,,,
6.848722,1774476762.491104,0.20171427832779998,9.748194028501759,-1.6259451096985584,-1.89165823,-0.7895508888742861,2.506872513916827,,,
6.8569830000000005,1774476762.499678,0.2023128370172,9.755842010221023,-1.6245110842270347,-2.02624261,-0.7824144130542601,2.612370890061345,,,
6.865244000000001,1774476762.505544,0.2011157196384,9.759940361439492,-1.6253822157096751,-1.91408896,-0.8681629710760859,2.676461001387852,,,
6.8735040000000005,1774476762.514156,0.20949554129,9.746963728226335,-1.6403699416544453,-1.6748278399999998,-0.9862746895232701,2.732142217845915,,,
6.881765000000001,1774476762.524488,0.2172768042522,9.758249029773237,-1.6390971215654038,-1.50285891,-1.0261284172724339,2.8323407732596833,,,
6.8900250000000005,1774476762.53002,0.2322407714872,9.776435628911425,-1.6399031484778126,-1.52528964,-1.025669253500115,2.87046291818811,,,
6.898286000000001,1774476762.5393522,0.2280508606614,9.762135244310201,-1.6380873694568938,-1.74212003,-0.9580109042635949,3.0089606642821947,,,
6.906547000000001,1774476762.546209,0.2328393301766,9.768012616521771,-1.6277099574204519,-1.60753565,-1.0442186260577402,3.0349286306802745,,,
6.914807000000001,1774476762.5579689,0.2340364475554,9.779510054750178,-1.62831802092256,-1.69725857,-1.033336866575811,3.0861232816836868,,,
6.923068000000001,1774476762.56371,0.23942347576,9.779085781387165,-1.6245562537402598,-1.7196893,-1.036268894961615,2.96444332532649,,,
6.931329000000001,1774476762.5709388,0.2436133865858,9.797396827880014,-1.6247768019071727,-1.8168891299999999,-1.0496235190570289,2.829690862894308,,,
6.939589000000001,1774476762.579265,0.242416269207,9.797857859270849,-1.6254867280073322,-1.89913514,-1.011606446397141,2.5770037277668316,,,
6.947850000000001,1774476762.587479,0.23942347576,9.807027555788478,-1.6341670465917177,-2.0038118799999998,-1.000547641163322,2.521145465556879,,,
6.956110000000001,1774476762.595485,0.2376277996918,9.783220890633455,-1.6223755441407588,-1.9439966,-0.9644391970760609,2.475250635284217,,,
6.964371000000001,1774476762.6044679,0.2316422127978,9.76798426997936,-1.6105698684185932,-1.89165823,-0.9978977307979469,2.497650363772284,,,
6.972632000000001,1774476762.612322,0.227452301972,9.760197667634225,-1.6040193281346833,-1.89165823,-1.034183220637098,2.650598107258311,,,
6.980892000000001,1774476762.623652,0.2370292410024,9.78142769636915,-1.6250540431589116,-1.88418132,-1.108308737384247,2.9491800726584487,,,
6.989153000000001,1774476762.628819,0.24840185610100002,9.768261511231097,-1.6265389999294606,-1.99633497,-1.184907118744881,3.164204226629817,,,
6.997414,1774476762.640044,0.2525917669268,9.762194587094633,-1.623413642791681,-2.05615025,-1.1687255385322017,3.1684086740640387,,,
7.005674000000001,1774476762.645466,0.2579787951314,9.76155817705011,-1.6177709920182304,-1.90661205,-1.1039992176814857,3.185226463800927,,,
7.013935,1774476762.660481,0.2591759125102,9.748267544557397,-1.619841427534275,-1.8767044099999999,-1.0149645397700762,3.028710482404887,,,
7.022195000000001,1774476762.6614988,0.2537888843056,9.757920857222473,-1.6176097866357486,-1.92156587,-1.024573880203587,2.8396542948315986,,,
7.030456,1774476762.670838,0.254387442995,9.760336288260094,-1.6120038938901167,-1.77202767,-0.8905626995641531,2.643002467665966,,,
7.038717,1774476762.6788638,0.2436133865858,9.74247209988687,-1.6039232273224326,-1.8467967699999999,-0.8562909105661678,2.4446190576795965,,,
7.046977,1774476762.6913111,0.24540906265399998,9.742808683923041,-1.6052186321680877,-1.72716621,-0.8388369113050711,2.3109619685439418,,,
7.055238,1774476762.6949,0.2412191518282,9.737677995839448,-1.612083171731555,-1.6748278399999998,-0.8268597785266141,2.331347996190843,,,
7.063499,1774476762.70545,0.251394649548,9.753098406632638,-1.6086296420430115,-1.6748278399999998,-0.8676318338204159,2.355302261747757,,,
7.071759,1774476762.725268,0.2561831190632,9.762714961269896,-1.6094498422266268,-1.62996638,-0.794496618101256,2.3397568910592867,,,
7.08002,1774476762.7254348,0.26037302988899996,9.778398440043619,-1.6133953995480215,-1.46547436,-0.6258264581748689,2.342124683404233,,,
7.08828,1774476762.727705,0.2615701472678,9.779357260853102,-1.6117634106661973,-1.54024346,-0.424511019802695,2.4980764287594153,,,
7.096541,1774476762.735605,0.2448105039646,9.780367012961614,-1.6156496252031605,-1.61501256,-0.256936233172836,2.531252844460872,,,
7.104802,1774476762.7444139,0.25319032561620003,9.77549363107275,-1.6011512771916359,-1.7346431199999999,-0.11907469660296,2.5325252635092896,,,
7.113062,1774476762.7523232,0.2268537432826,9.775046772953127,-1.6090113955924068,-1.63744329,0.06595408928799606,2.432044590075093,,,
7.121323,1774476762.76053,0.22206527376739998,9.780381186232818,-1.6242196697040898,-1.48790509,0.210492937905579,2.5006932403396016,,,
7.129584,1774476762.769026,0.21607968687339998,9.765458564858282,-1.6253312844106502,-1.58510492,0.23801544137250608,2.594214483705663,,,
7.137844,1774476762.7806568,0.1963272501232,9.758257441258642,-1.6189051914814028,-1.52528964,0.1977025498510231,2.656290894191004,,,
7.146105,1774476762.786005,0.1873488697822,9.765928007734521,-1.6058492804268083,-1.47295127,0.203920698126411,2.6855449804786677,,,
7.154365,1774476762.795288,0.1873488697822,9.778061856007449,-1.612099994702367,-1.65987402,0.125308615924611,2.855133467949693,,,
7.162626,1774476762.8024268,0.19213733929739998,9.787590721317864,-1.6104538325493365,-1.5701511,0.025287106262732895,2.708226826987164,,,
7.1708870000000005,1774476762.812219,0.1879474284716,9.781874554488773,-1.6171939247581406,-1.60753565,-0.14631508204945798,2.584179078285021,,,
7.179147,1774476762.8189719,0.1867503110928,9.762655618485464,-1.6241235688918396,-1.55519728,-0.3087670937004571,2.611065372227739,,,
7.1874080000000005,1774476762.827029,0.18555319371399998,9.771723452405045,-1.6217674806386502,-1.65987402,-0.457969553524581,2.5204761572474816,,,
7.1956690000000005,1774476762.835741,0.1903416632292,9.78145028112576,-1.6134321575758404,-1.5626741899999999,-0.5643862572137369,2.451368343210654,,,
7.2039290000000005,1774476762.844057,0.1993200435702,9.778186303362112,-1.6115145159568716,-1.68978166,-0.643457503187856,2.582834685753252,,,
7.2121900000000005,1774476762.852187,0.19453157405500002,9.774775293487187,-1.6218042386664688,-1.74212003,-0.659816129152425,2.6856831515323947,,,
7.2204500000000005,1774476762.861987,0.2196710390098,9.772792547297987,-1.6109799685104007,-1.80193531,-0.7641140597318761,2.9142389753510667,,,
7.2287110000000006,1774476762.8751,0.2340364475554,9.768832816705384,-1.6180934027831937,-1.80193531,-0.7935451917714299,3.0275100368398196,,,
7.236972000000001,1774476762.876362,0.2310436541084,9.771972347114371,-1.6205965231476587,-1.6748278399999998,-0.7607228675737531,3.074041076636691,,,
7.245232000000001,1774476762.8863559,0.2490004147904,9.773714610079653,-1.612399820710718,-1.68230475,-0.8234354875833029,3.102658953400146,,,
7.253493000000001,1774476762.8957179,0.2490004147904,9.773129131334155,-1.6122753733560553,-1.57762801,-0.7241552597141728,3.066268391292456,,,
7.261754000000001,1774476762.9034638,0.23942347576,9.767149896524534,-1.6116163785549216,-1.6748278399999998,-0.7625595226630291,2.9215524969229834,,,
7.270014000000001,1774476762.9176488,0.23942347576,9.749101918012217,-1.6187949173979461,-1.7047354799999999,-0.835517692630299,2.8300449543980877,,,
7.278275000000001,1774476762.91788,0.23523356493419997,9.739609810729622,-1.6173892384688349,-1.6748278399999998,-0.905366788459875,2.753164455017025,,,
7.286535000000001,1774476762.92635,0.2472047387222,9.745252461503075,-1.6167528284243142,-1.57762801,-1.035914803457835,2.75033749889976,,,
7.294796000000001,1774476762.942283,0.2412191518282,9.744279467422382,-1.6098147728052092,-1.60753565,-1.152294939084282,2.706279323716374,,,
7.296658,1774476762.935651,,,,,,,71.25343720000001,-87.92027618001288,89.21829369047435
7.296744,1774476762.9357371,,,,,,,70.7895636,-87.78991597339727,90.30129730917037
7.296816,1774476762.9358091,,,,,,,68.76316840000001,-88.01435445563064,88.36469651575428
7.301948,1774476762.940941,,,,,,,70.75294199999999,-88.33363972874425,90.6789476054195
7.302375,1774476762.941368,,,,,,,68.7265468,-88.11738398413918,90.3459429544194
7.302681,1774476762.941674,,,,,,,70.80177080000001,-88.32469790591546,90.42744863924388
7.302982,1774476762.941975,,,,,,,70.6064556,-88.59246369974376,90.45940418597172
7.303057000000001,1774476762.942753,0.24540906265399998,9.74520153020405,-1.611234625005527,-1.55519728,-1.2176574694592068,2.758392302264424,,,
7.303195,1774476762.942188,,,,,,,70.9726716,-88.08542843741137,90.61370874824772
7.311318000000001,1774476762.952168,0.254387442995,9.747045655767378,-1.6140743294061615,-1.51781273,-1.3562602878218308,2.573822680145787,,,
7.319578000000001,1774476762.960109,0.2567816777526,9.746972139711744,-1.620178011570445,-1.40565908,-1.366682883531441,2.5607501740708023,,,
7.327839000000001,1774476762.968767,0.2681542928512,9.745690908137295,-1.629084640107544,-1.3383668899999999,-1.305065636818419,2.5629409206638583,,,
7.3361,1774476762.976591,0.2579787951314,9.738218305071719,-1.6354513902523597,-1.32341307,-1.3319519307611367,2.400488909012859,,,
7.344360000000001,1774476762.98474,0.2591759125102,9.747300312262505,-1.6416653465000997,-1.33088998,-1.2504078201735331,2.352580377899031,,,
7.352621,1774476762.992523,0.26097158857839997,9.753528441781452,-1.6411533838102417,-1.2561208799999999,-1.171054456178985,2.3662890934982252,,,
7.360882,1774476763.000843,0.26037302988899996,9.765187085392343,-1.6381241274847127,-1.3458438,-1.114277866424394,2.453592188588898,,,
7.369142,1774476763.009417,0.2597744711996,9.775293017962847,-1.6567943427703453,-1.1963056,-1.061528678352135,2.4500239506788852,,,
7.377403,1774476763.017028,0.2507960908586,9.782479968291277,-1.654650391198663,-1.29350543,-0.991856628274449,2.633957363273313,,,
